time in milliseconds,acceleration_x,acceleration_y,acceleration_z,Roll,Pitch,Yaw
5.0,-6.357,-3.9969,7.1186,0.3027,0.7969,-0.1698
10.0,-6.357,-3.9969,7.1186,0.3027,0.7969,-0.1698
15.0,-6.357,-3.9969,7.1186,-0.3375,-0.2422,1.3208
20.0,-6.357,-3.9969,7.1186,-0.3375,-0.2422,1.3208
26.0,-3.9768,-2.9243,6.948,-0.3375,-0.2422,1.3208
30.0,-3.9768,-2.9243,6.948,-0.3375,-0.2422,1.3208
35.0,-3.9768,-2.9243,6.948,-0.3375,-0.2422,1.3208
41.0,-3.9768,-2.9243,6.948,-0.3375,-0.2422,1.3208
45.0,-3.9768,-2.9243,6.948,-0.3375,-0.2422,1.3208
50.0,-2.6406,-0.3788,6.5641,-0.5714,0.4077,1.6561
55.0,-2.6406,-0.3788,6.5641,-0.5714,0.4077,1.6561
60.0,-2.6406,-0.3788,6.5641,-0.5714,0.4077,1.6561
65.0,-2.6406,-0.3788,6.5641,-0.5714,0.4077,1.6561
70.0,-2.6406,-0.3788,6.5641,-0.5714,0.4077,1.6561
75.0,-2.7603,-2.9624,6.6257,-0.5464,1.9245,1.4729
80.0,-2.7603,-2.9624,6.6257,-0.5464,1.9245,1.4729
85.0,-2.7603,-2.9624,6.6257,-0.5464,1.9245,1.4729
90.0,-2.7603,-2.9624,6.6257,-0.5464,1.9245,1.4729
96.0,-2.7603,-2.9624,6.6257,-0.5464,1.9245,1.4729
100.0,-2.7603,-2.9624,6.6257,-0.5464,1.9245,1.4729
105.0,-5.0209,-4.3162,7.3271,-0.5464,1.9245,1.4729
110.0,-5.0209,-4.3162,7.3271,-0.4871,2.7052,1.9939
115.0,-5.0209,-4.3162,7.3271,-0.4871,2.7052,1.9939
120.0,-5.0209,-4.3162,7.3271,-0.4871,2.7052,1.9939
125.0,-5.0209,-4.3162,7.3271,-0.4871,2.7052,1.9939
130.0,-4.7958,-1.8661,5.4125,-0.4871,2.7052,1.9939
135.0,-4.7958,-1.8661,5.4125,-0.4871,2.7052,1.9939
140.0,-4.7958,-1.8661,5.4125,-0.4871,2.7052,1.9939
145.0,-4.7958,-1.8661,5.4125,-1.1463,1.9178,2.8369
150.0,-4.7958,-1.8661,5.4125,-1.1463,1.9178,2.8369
155.0,-4.7958,-1.8661,5.4125,-1.1463,1.9178,2.8369
160.0,-3.2488,-1.213,4.4363,-1.1463,1.9178,2.8369
165.0,-3.2488,-1.213,4.4363,-1.1463,1.9178,2.8369
170.0,-3.2488,-1.213,4.4363,-1.1463,1.9178,2.8369
175.0,-3.2488,-1.213,4.4363,-2.5928,2.4682,1.4973
180.0,-3.2488,-1.213,4.4363,-2.5928,2.4682,1.4973
186.0,-2.4299,-3.7204,4.6258,-2.5928,2.4682,1.4973
190.0,-2.4299,-3.7204,4.6258,-2.5928,2.4682,1.4973
195.0,-2.4299,-3.7204,4.6258,-2.5928,2.4682,1.4973
200.0,-2.4299,-3.7204,4.6258,-2.5928,2.4682,1.4973
205.0,-2.4299,-3.7204,4.6258,-3.8555,4.054,-1.6719
210.0,-1.9989,-5.9131,5.2087,-3.8555,4.054,-1.6719
215.0,-1.9989,-5.9131,5.2087,-3.8555,4.054,-1.6719
220.0,-1.9989,-5.9131,5.2087,-3.8555,4.054,-1.6719
225.0,-1.9989,-5.9131,5.2087,-3.8555,4.054,-1.6719
230.0,-1.9989,-5.9131,5.2087,-3.8555,4.054,-1.6719
235.0,-1.9989,-5.9131,5.2087,-3.8555,4.054,-1.6719
240.0,-1.9701,-7.3765,4.0098,-5.0619,3.4364,-2.5735
245.0,-1.9701,-7.3765,4.0098,-5.0619,3.4364,-2.5735
250.0,-1.9701,-7.3765,4.0098,-5.0619,3.4364,-2.5735
255.0,-1.9701,-7.3765,4.0098,-5.0619,3.4364,-2.5735
260.0,-1.9701,-7.3765,4.0098,-5.0619,3.4364,-2.5735
265.0,-2.1856,-9.3357,2.2895,-6.2849,3.5354,-2.959
271.0,-2.1856,-9.3357,2.2895,-6.2849,3.5354,-2.959
275.0,-2.1856,-9.3357,2.2895,-6.2849,3.5354,-2.959
280.0,-2.1856,-9.3357,2.2895,-6.2849,3.5354,-2.959
285.0,-2.1856,-9.3357,2.2895,-6.2849,3.5354,-2.959
291.0,-3.6463,-13.8784,2.4032,-6.2849,3.5354,-2.959
295.0,-3.6463,-13.8784,2.4032,-6.2849,3.5354,-2.959
300.0,-3.6463,-13.8784,2.4032,-7.3802,4.051,-4.0744
305.0,-3.6463,-13.8784,2.4032,-7.3802,4.051,-4.0744
310.0,-3.6463,-13.8784,2.4032,-7.3802,4.051,-4.0744
315.0,-3.6463,-13.8784,2.4032,-7.3802,4.051,-4.0744
320.0,-7.2335,-17.5346,3.2989,-7.3802,4.051,-4.0744
325.0,-7.2335,-17.5346,3.2989,-7.3802,4.051,-4.0744
331.0,-7.2335,-17.5346,3.2989,-7.5757,3.7865,-4.1807
335.0,-7.2335,-17.5346,3.2989,-7.5757,3.7865,-4.1807
340.0,-7.2335,-17.5346,3.2989,-7.5757,3.7865,-4.1807
345.0,-24.0389,-18.936,3.4553,-7.5757,3.7865,-4.1807
351.0,-24.0389,-18.936,3.4553,-7.5757,3.7865,-4.1807
355.0,-24.0389,-18.936,3.4553,-7.5757,3.7865,-4.1807
360.0,-24.0389,-18.936,3.4553,-5.3961,-0.9459,-2.7336
365.0,-24.0389,-18.936,3.4553,-5.3961,-0.9459,-2.7336
370.0,-20.7822,-20.7188,7.1754,-5.3961,-0.9459,-2.7336
375.0,-20.7822,-20.7188,7.1754,-5.3961,-0.9459,-2.7336
380.0,-20.7822,-20.7188,7.1754,-5.3961,-0.9459,-2.7336
385.0,-20.7822,-20.7188,7.1754,-5.3961,-0.9459,-2.7336
390.0,-20.7822,-20.7188,7.1754,-5.3961,-0.9459,-2.7336
395.0,-20.7822,-20.7188,7.1754,-2.5537,-2.6747,-0.5051
400.0,-24.2592,-10.7133,-0.6629,-2.5537,-2.6747,-0.5051
405.0,-24.2592,-10.7133,-0.6629,-2.5537,-2.6747,-0.5051
410.0,-24.2592,-10.7133,-0.6629,-2.5537,-2.6747,-0.5051
415.0,-24.2592,-10.7133,-0.6629,-2.5537,-2.6747,-0.5051
420.0,-24.2592,-10.7133,-0.6629,-2.5537,-2.6747,-0.5051
425.0,-15.7727,-8.7684,-5.3025,-3.3399,-6.5885,0.5633
430.0,-15.7727,-8.7684,-5.3025,-3.3399,-6.5885,0.5633
435.0,-15.7727,-8.7684,-5.3025,-3.3399,-6.5885,0.5633
440.0,-15.7727,-8.7684,-5.3025,-3.3399,-6.5885,0.5633
445.0,-15.7727,-8.7684,-5.3025,-3.3399,-6.5885,0.5633
450.0,-15.7727,-8.7684,-5.3025,-3.3399,-6.5885,0.5633
455.0,-5.8446,-8.0629,-2.5159,-3.3399,-6.5885,0.5633
460.0,-5.8446,-8.0629,-2.5159,-3.3576,-5.7095,-0.6817
465.0,-5.8446,-8.0629,-2.5159,-3.3576,-5.7095,-0.6817
470.0,-5.8446,-8.0629,-2.5159,-3.3576,-5.7095,-0.6817
475.0,-5.8446,-8.0629,-2.5159,-3.3576,-5.7095,-0.6817
480.0,-1.6828,-5.9369,-0.1606,-3.3576,-5.7095,-0.6817
485.0,-1.6828,-5.9369,-0.1606,-0.1286,-1.6509,-1.2632
490.0,-1.6828,-5.9369,-0.1606,-0.1286,-1.6509,-1.2632
495.0,-1.6828,-5.9369,-0.1606,-0.1286,-1.6509,-1.2632
500.0,-1.6828,-5.9369,-0.1606,-0.1286,-1.6509,-1.2632
505.0,-3.4739,-9.779,2.4174,-0.1286,-1.6509,-1.2632
510.0,-3.4739,-9.779,2.4174,-0.1286,-1.6509,-1.2632
516.0,-3.4739,-9.779,2.4174,-0.1286,-1.6509,-1.2632
520.0,-3.4739,-9.779,2.4174,1.916,1.2703,0.7026
525.0,-3.4739,-9.779,2.4174,1.916,1.2703,0.7026
530.0,-5.7584,-8.9353,0.1,1.916,1.2703,0.7026
535.0,-5.7584,-8.9353,0.1,1.916,1.2703,0.7026
540.0,-5.7584,-8.9353,0.1,1.916,1.2703,0.7026
545.0,-5.7584,-8.9353,0.1,1.916,1.2703,0.7026
550.0,-5.7584,-8.9353,0.1,0.4463,0.8402,1.355
555.0,-5.7584,-8.9353,0.1,0.4463,0.8402,1.355
560.0,-5.7584,-8.9353,0.1,0.4463,0.8402,1.355
565.0,-5.5908,-5.098,-3.1462,0.4463,0.8402,1.355
570.0,-5.5908,-5.098,-3.1462,0.4463,0.8402,1.355
575.0,-5.5908,-5.098,-3.1462,0.4463,0.8402,1.355
580.0,-5.5908,-5.098,-3.1462,0.4463,0.8402,1.355
585.0,-5.5908,-5.098,-3.1462,0.4463,0.8402,1.355
590.0,-5.5908,-5.098,-3.1462,-0.0607,0.2575,0.3012
599.0,-5.5908,-5.098,-3.1462,-0.0607,0.2575,0.3012
600.0,-5.5908,-5.098,-3.1462,-0.0607,0.2575,0.3012
606.0,-3.7996,-7.8198,0.7493,-0.0607,0.2575,0.3012
610.0,-3.7996,-7.8198,0.7493,-0.0607,0.2575,0.3012
615.0,-3.7996,-7.8198,0.7493,-0.0607,0.2575,0.3012
620.0,-3.7996,-7.8198,0.7493,-0.0607,0.2575,0.3012
625.0,-3.7996,-7.8198,0.7493,-0.0039,-0.2416,0.8027
630.0,-5.8398,-9.5931,-1.388,-0.0039,-0.2416,0.8027
635.0,-5.8398,-9.5931,-1.388,-0.0039,-0.2416,0.8027
640.0,-5.8398,-9.5931,-1.388,-0.0039,-0.2416,0.8027
645.0,-5.8398,-9.5931,-1.388,-0.0039,-0.2416,0.8027
650.0,-5.8398,-9.5931,-1.388,-0.0039,-0.2416,0.8027
655.0,-5.5764,-7.4432,0.9294,0.3943,-0.8885,3.3128
660.0,-5.5764,-7.4432,0.9294,0.3943,-0.8885,3.3128
665.0,-5.5764,-7.4432,0.9294,0.3943,-0.8885,3.3128
671.0,-5.5764,-7.4432,0.9294,0.3943,-0.8885,3.3128
675.0,-5.5764,-7.4432,0.9294,0.3943,-0.8885,3.3128
680.0,-4.8341,-5.9894,2.1568,0.3943,-0.8885,3.3128
685.0,-4.8341,-5.9894,2.1568,0.2972,0.2275,0.6537
691.0,-4.8341,-5.9894,2.1568,0.2972,0.2275,0.6537
696.0,-4.8341,-5.9894,2.1568,0.2972,0.2275,0.6537
701.0,-4.8341,-5.9894,2.1568,0.2972,0.2275,0.6537
705.0,-4.7814,-12.6915,-0.5066,0.2972,0.2275,0.6537
710.0,-4.7814,-12.6915,-0.5066,0.2972,0.2275,0.6537
715.0,-4.7814,-12.6915,-0.5066,1.1928,0.938,0.4197
720.0,-4.7814,-12.6915,-0.5066,1.1928,0.938,0.4197
725.0,-4.7814,-12.6915,-0.5066,1.1928,0.938,0.4197
730.0,-4.7814,-12.6915,-0.5066,1.1928,0.938,0.4197
735.0,-2.7603,-13.5352,-0.0421,1.1928,0.938,0.4197
740.0,-2.7603,-13.5352,-0.0421,1.1928,0.938,0.4197
746.0,-2.7603,-13.5352,-0.0421,1.1647,1.8964,1.603
750.0,-2.7603,-13.5352,-0.0421,1.1647,1.8964,1.603
755.0,-2.7603,-13.5352,-0.0421,1.1647,1.8964,1.603
760.0,-1.6301,-9.7075,2.2705,1.1647,1.8964,1.603
765.0,-1.6301,-9.7075,2.2705,1.1647,1.8964,1.603
770.0,-1.6301,-9.7075,2.2705,1.1647,1.8964,1.603
775.0,-1.6301,-9.7075,2.2705,0.2636,2.9037,1.4002
780.0,-1.6301,-9.7075,2.2705,0.2636,2.9037,1.4002
785.0,-1.6301,-9.7075,2.2705,0.2636,2.9037,1.4002
790.0,-1.9127,-8.6064,2.7918,0.2636,2.9037,1.4002
796.0,-1.9127,-8.6064,2.7918,0.2636,2.9037,1.4002
800.0,-1.9127,-8.6064,2.7918,0.2636,2.9037,1.4002
805.0,-1.9127,-8.6064,2.7918,0.2636,2.9037,1.4002
810.0,-1.9127,-8.6064,2.7918,0.1024,3.6099,0.9206
815.0,0.3575,-7.5481,3.5169,0.1024,3.6099,0.9206
820.0,0.3575,-7.5481,3.5169,0.1024,3.6099,0.9206
826.0,0.3575,-7.5481,3.5169,0.1024,3.6099,0.9206
831.0,0.3575,-7.5481,3.5169,0.1024,3.6099,0.9206
835.0,0.3575,-7.5481,3.5169,0.1024,3.6099,0.9206
840.0,0.3575,-7.5481,3.5169,1.4053,4.2147,0.7337
846.0,0.3575,-7.5481,3.5169,1.4053,4.2147,0.7337
850.0,0.3575,-7.5481,3.5169,1.4053,4.2147,0.7337
856.0,-2.9759,-8.0963,1.9009,1.4053,4.2147,0.7337
860.0,-2.9759,-8.0963,1.9009,1.4053,4.2147,0.7337
865.0,-2.9759,-8.0963,1.9009,1.4053,4.2147,0.7337
870.0,-2.9759,-8.0963,1.9009,2.2771,1.6918,0.9469
875.0,-2.9759,-8.0963,1.9009,2.2771,1.6918,0.9469
880.0,-8.6032,-8.5587,3.3321,2.2771,1.6918,0.9469
886.0,-8.6032,-8.5587,3.3321,2.2771,1.6918,0.9469
890.0,-8.6032,-8.5587,3.3321,2.2771,1.6918,0.9469
895.0,-8.6032,-8.5587,3.3321,2.2771,1.6918,0.9469
900.0,-8.6032,-8.5587,3.3321,-1.7748,0.0247,0.2749
905.0,-3.6895,-4.2733,9.853,-1.7748,0.0247,0.2749
910.0,-3.6895,-4.2733,9.853,-1.7748,0.0247,0.2749
916.0,-3.6895,-4.2733,9.853,-1.7748,0.0247,0.2749
920.0,-3.6895,-4.2733,9.853,-1.7748,0.0247,0.2749
925.0,-3.6895,-4.2733,9.853,-1.7748,0.0247,0.2749
930.0,-6.0697,-4.0922,-2.5633,-2.7137,2.7248,0.1583
935.0,-6.0697,-4.0922,-2.5633,-2.7137,2.7248,0.1583
940.0,-6.0697,-4.0922,-2.5633,-2.7137,2.7248,0.1583
945.0,-6.0697,-4.0922,-2.5633,-2.7137,2.7248,0.1583
950.0,-6.0697,-4.0922,-2.5633,-2.7137,2.7248,0.1583
955.0,-6.0697,-4.0922,-2.5633,-2.7137,2.7248,0.1583
960.0,-6.1128,-10.0269,-0.9046,-2.7137,2.7248,0.1583
965.0,-6.1128,-10.0269,-0.9046,-1.5616,-1.4157,-0.0427
970.0,-6.1128,-10.0269,-0.9046,-1.5616,-1.4157,-0.0427
975.0,-6.1128,-10.0269,-0.9046,-1.5616,-1.4157,-0.0427
980.0,-6.1128,-10.0269,-0.9046,-1.5616,-1.4157,-0.0427
985.0,2.412,-12.3292,3.0335,-1.5616,-1.4157,-0.0427
990.0,2.412,-12.3292,3.0335,-1.5616,-1.4157,-0.0427
995.0,2.412,-12.3292,3.0335,-1.3814,0.0492,1.2328
1000.0,2.412,-12.3292,3.0335,-1.3814,0.0492,1.2328
1006.0,2.412,-12.3292,3.0335,-1.3814,0.0492,1.2328
1010.0,2.412,-12.3292,3.0335,-1.3814,0.0492,1.2328
1016.0,0.9274,-13.8641,-0.6866,-1.3814,0.0492,1.2328
1020.0,0.9274,-13.8641,-0.6866,-1.3814,0.0492,1.2328
1025.0,0.9274,-13.8641,-0.6866,-1.3814,0.0492,1.2328
1030.0,0.9274,-13.8641,-0.6866,1.8812,-0.6087,3.2933
1036.0,0.9274,-13.8641,-0.6866,1.8812,-0.6087,3.2933
1040.0,-0.495,-9.2451,4.332,1.8812,-0.6087,3.2933
1045.0,-0.495,-9.2451,4.332,1.8812,-0.6087,3.2933
1050.0,-0.495,-9.2451,4.332,1.8812,-0.6087,3.2933
1055.0,-0.495,-9.2451,4.332,1.8812,-0.6087,3.2933
1060.0,-0.495,-9.2451,4.332,4.431,-1.3699,1.1051
1065.0,2.8909,-3.8777,-1.0658,4.431,-1.3699,1.1051
1070.0,2.8909,-3.8777,-1.0658,4.431,-1.3699,1.1051
1076.0,2.8909,-3.8777,-1.0658,4.431,-1.3699,1.1051
1080.0,2.8909,-3.8777,-1.0658,4.431,-1.3699,1.1051
1085.0,2.8909,-3.8777,-1.0658,4.431,-1.3699,1.1051
1090.0,2.8909,-3.8777,-1.0658,3.6155,-2.3033,-3.306
1095.0,-1.4864,-9.3166,3.8012,3.6155,-2.3033,-3.306
1100.0,-1.4864,-9.3166,3.8012,3.6155,-2.3033,-3.306
1105.0,-1.4864,-9.3166,3.8012,3.6155,-2.3033,-3.306
1110.0,-1.4864,-9.3166,3.8012,3.6155,-2.3033,-3.306
1115.0,-1.4864,-9.3166,3.8012,3.6155,-2.3033,-3.306
1120.0,-1.6061,-9.1402,0.8867,5.8616,-3.704,-2.5992
1125.0,-1.6061,-9.1402,0.8867,5.8616,-3.704,-2.5992
1130.0,-1.6061,-9.1402,0.8867,5.8616,-3.704,-2.5992
1135.0,-1.6061,-9.1402,0.8867,5.8616,-3.704,-2.5992
1140.0,-1.6061,-9.1402,0.8867,5.8616,-3.704,-2.5992
1145.0,-2.8944,-1.6373,5.9907,5.8616,-3.704,-2.5992
1150.0,-2.8944,-1.6373,5.9907,4.0706,-1.7902,-1.5589
1156.0,-2.8944,-1.6373,5.9907,4.0706,-1.7902,-1.5589
1160.0,-2.8944,-1.6373,5.9907,4.0706,-1.7902,-1.5589
1165.0,-2.8944,-1.6373,5.9907,4.0706,-1.7902,-1.5589
1170.0,-2.8944,-1.6373,5.9907,4.0706,-1.7902,-1.5589
1175.0,-6.041,-4.5975,8.1706,4.0706,-1.7902,-1.5589
1180.0,-6.041,-4.5975,8.1706,4.0706,-1.7902,-1.5589
1185.0,-6.041,-4.5975,8.1706,3.1793,0.0437,-2.9993
1190.0,-6.041,-4.5975,8.1706,3.1793,0.0437,-2.9993
1195.0,-6.041,-4.5975,8.1706,3.1793,0.0437,-2.9993
1200.0,-6.041,-4.5975,8.1706,3.1793,0.0437,-2.9993
1205.0,-4.9203,-0.4694,9.1564,3.1793,0.0437,-2.9993
1211.0,-4.9203,-0.4694,9.1564,3.1793,0.0437,-2.9993
1215.0,-4.9203,-0.4694,9.1564,3.1793,0.0437,-2.9993
1221.0,-4.9203,-0.4694,9.1564,3.1793,0.0437,-2.9993
1225.0,-4.9203,-0.4694,9.1564,1.8611,-0.0101,-1.609
1230.0,-18.3684,-2.7718,4.8723,1.8611,-0.0101,-1.609
1235.0,-18.3684,-2.7718,4.8723,1.8611,-0.0101,-1.609
1241.0,-18.3684,-2.7718,4.8723,1.8611,-0.0101,-1.609
1245.0,-18.3684,-2.7718,4.8723,1.8611,-0.0101,-1.609
1250.0,-18.3684,-2.7718,4.8723,1.8611,-0.0101,-1.609
1255.0,-18.3684,-2.7718,4.8723,-3.8543,5.2513,-0.2046
1261.0,-4.9059,-3.196,1.9246,-3.8543,5.2513,-0.2046
1265.0,-4.9059,-3.196,1.9246,-3.8543,5.2513,-0.2046
1270.0,-4.9059,-3.196,1.9246,-3.8543,5.2513,-0.2046
1275.0,-4.9059,-3.196,1.9246,-3.8543,5.2513,-0.2046
1280.0,-4.9059,-3.196,1.9246,-3.8543,5.2513,-0.2046
1285.0,-3.6655,-9.226,-10.7429,-2.6441,3.5177,1.3519
1290.0,-3.6655,-9.226,-10.7429,-2.6441,3.5177,1.3519
1295.0,-3.6655,-9.226,-10.7429,-2.6441,3.5177,1.3519
1300.0,-3.6655,-9.226,-10.7429,-2.6441,3.5177,1.3519
1306.0,-3.6655,-9.226,-10.7429,-2.6441,3.5177,1.3519
1310.0,-4.1492,-5.6652,-1.9757,-2.6441,3.5177,1.3519
1315.0,-4.1492,-5.6652,-1.9757,-2.1359,1.0528,-0.3102
1321.0,-4.1492,-5.6652,-1.9757,-2.1359,1.0528,-0.3102
1325.0,-4.1492,-5.6652,-1.9757,-2.1359,1.0528,-0.3102
1330.0,-4.1492,-5.6652,-1.9757,-2.1359,1.0528,-0.3102
1336.0,-4.1492,-3.0101,2.7539,-2.1359,1.0528,-0.3102
1340.0,-1.3379,-3.0101,2.7539,-2.1359,1.0528,-0.3102
1345.0,-1.3379,-3.0101,2.7539,-3.1738,2.0143,0.6519
1350.0,-1.3379,-3.0101,2.7539,-3.1738,2.0143,0.6519
1356.0,-1.3379,-3.0101,2.7539,-3.1738,2.0143,0.6519
1360.0,-1.3379,-3.0101,2.7539,-3.1738,2.0143,0.6519
1365.0,-0.2843,-9.9268,3.8439,-3.1738,2.0143,0.6519
1371.0,-0.2843,-9.9268,3.8439,-3.1738,2.0143,0.6519
1376.0,-0.2843,-9.9268,3.8439,-2.9508,3.197,1.5211
1380.0,-0.2843,-9.9268,3.8439,-2.9508,3.197,1.5211
1386.0,-0.2843,-9.9268,3.8439,-2.9508,3.197,1.5211
1390.0,-0.2843,-9.9268,3.8439,-2.9508,3.197,1.5211
1395.0,-4.3887,-11.1995,-10.2453,-2.9508,3.197,1.5211
1400.0,-4.3887,-11.1995,-10.2453,-2.9508,3.197,1.5211
1405.0,-4.3887,-11.1995,-10.2453,-2.9508,3.197,1.5211
1411.0,-4.3887,-11.1995,-10.2453,-3.2385,0.704,-0.1911
1416.0,-4.3887,-11.1995,-10.2453,-3.2385,0.704,-0.1911
1420.0,-4.3887,-11.1995,-10.2453,-3.2385,0.704,-0.1911
1425.0,-9.6808,-14.5935,-4.2741,-3.2385,0.704,-0.1911
1430.0,-9.6808,-14.5935,-4.2741,-3.2385,0.704,-0.1911
1435.0,-9.6808,-14.5935,-4.2741,-3.2385,0.704,-0.1911
1440.0,-9.6808,-14.5935,-4.2741,-1.0736,0.1579,-0.2968
1446.0,-9.6808,-14.5935,-4.2741,-1.0736,0.1579,-0.2968
1450.0,-9.2402,-14.7746,-1.3454,-1.0736,0.1579,-0.2968
1455.0,-9.2402,-14.7746,-1.3454,-1.0736,0.1579,-0.2968
1460.0,-9.2402,-14.7746,-1.3454,-1.0736,0.1579,-0.2968
1465.0,-9.2402,-14.7746,-1.3454,-1.0736,0.1579,-0.2968
1470.0,-9.2402,-14.7746,-1.3454,-0.051,0.8524,0.1894
1475.0,-9.2402,-14.7746,-1.3454,-0.051,0.8524,0.1894
1480.0,-3.9864,-6.7473,-2.8808,-0.051,0.8524,0.1894
1485.0,-3.9864,-6.7473,-2.8808,-0.051,0.8524,0.1894
1491.0,-3.9864,-6.7473,-2.8808,-0.051,0.8524,0.1894
1495.0,-3.9864,-6.7473,-2.8808,-0.051,0.8524,0.1894
1501.0,-3.9864,-6.7473,-2.8808,-0.051,0.8524,0.1894
1505.0,0.2138,-4.6308,-2.8808,-1.7352,0.8457,0.2835
1510.0,0.2138,-4.6308,-2.8808,-1.7352,0.8457,0.2835
1516.0,0.2138,-4.6308,-2.8808,-1.7352,0.8457,0.2835
1520.0,0.2138,-4.6308,-2.8808,-1.7352,0.8457,0.2835
1525.0,0.2138,-4.6308,-2.8808,-1.7352,0.8457,0.2835
1531.0,-1.8887,-4.8215,-2.9519,-1.7352,0.8457,0.2835
1535.0,-1.8887,-4.8215,-2.9519,-2.613,-0.0614,-0.0341
1540.0,-1.8887,-4.8215,-2.9519,-2.613,-0.0614,-0.0341
1545.0,-1.8887,-4.8215,-2.9519,-2.613,-0.0614,-0.0341
1550.0,-1.8887,-4.8215,-2.9519,-2.613,-0.0614,-0.0341
1555.0,-1.8887,-4.8215,-2.9519,-2.613,-0.0614,-0.0341
1560.0,-3.0621,-4.8787,-2.6154,-2.613,-0.0614,-0.0341
1566.0,-3.0621,-4.8787,-2.6154,-1.1408,0.5757,-0.6438
1571.0,-3.0621,-4.8787,-2.6154,-1.1408,0.5757,-0.6438
1575.0,-3.0621,-4.8787,-2.6154,-1.1408,0.5757,-0.6438
1580.0,-3.0621,-4.8787,-2.6154,-1.1408,0.5757,-0.6438
1585.0,-2.3964,-5.7129,-0.5682,-1.1408,0.5757,-0.6438
1590.0,-2.3964,-5.7129,-0.5682,-1.1408,0.5757,-0.6438
1595.0,-2.3964,-5.7129,-0.5682,-1.1408,0.5757,-0.6438
1600.0,-2.3964,-5.7129,-0.5682,-0.492,2.2275,-1.3158
1605.0,-2.3964,-5.7129,-0.5682,-0.492,2.2275,-1.3158
1611.0,-2.3964,-8.6254,1.9198,-0.492,2.2275,-1.3158
1615.0,-2.9711,-8.6254,1.9198,-0.492,2.2275,-1.3158
1620.0,-2.9711,-8.6254,1.9198,-0.492,2.2275,-1.3158
1625.0,-2.9711,-8.6254,1.9198,-0.492,2.2275,-1.3158
1630.0,-2.9711,-8.6254,1.9198,0.1537,3.4828,-0.9785
1636.0,-2.9711,-8.6254,1.9198,0.1537,3.4828,-0.9785
1640.0,-2.0611,-11.7524,-1.1037,0.1537,3.4828,-0.9785
1645.0,-2.0611,-11.7524,-1.1037,0.1537,3.4828,-0.9785
1650.0,-2.0611,-11.7524,-1.1037,0.1537,3.4828,-0.9785
1655.0,-2.0611,-11.7524,-1.1037,0.1537,3.4828,-0.9785
1660.0,-2.0611,-11.7524,-1.1037,-0.0052,3.8671,-1.1942
1665.0,-2.7124,-16.2618,-3.7339,-0.0052,3.8671,-1.1942
1671.0,-2.7124,-16.2618,-3.7339,-0.0052,3.8671,-1.1942
1675.0,-2.7124,-16.2618,-3.7339,-0.0052,3.8671,-1.1942
1680.0,-2.7124,-16.2618,-3.7339,-0.0052,3.8671,-1.1942
1686.0,-2.7124,-16.2618,-3.7339,-0.0052,3.8671,-1.1942
1690.0,-2.7124,-16.2618,-3.7339,0.4878,-1.687,-1.6364
1695.0,-2.0659,-16.5288,-11.5959,0.4878,-1.687,-1.6364
1700.0,-2.0659,-16.5288,-11.5959,0.4878,-1.687,-1.6364
1705.0,-2.0659,-16.5288,-11.5959,0.4878,-1.687,-1.6364
1710.0,-2.0659,-16.5288,-11.5959,0.4878,-1.687,-1.6364
1715.0,-2.0659,-16.5288,-11.5959,0.4878,-1.687,-1.6364
1720.0,0.094,-10.4511,0.138,0.4878,-1.687,-1.6364
1725.0,0.094,-10.4511,0.138,0.643,-6.8415,-2.1184
1730.0,0.094,-10.4511,0.138,0.643,-6.8415,-2.1184
1736.0,0.094,-10.4511,0.138,0.643,-6.8415,-2.1184
1740.0,0.094,-10.4511,0.138,0.643,-6.8415,-2.1184
1745.0,0.2138,-9.9554,-5.8333,0.643,-6.8415,-2.1184
1750.0,0.2138,-9.9554,-5.8333,0.643,-6.8415,-2.1184
1755.0,0.2138,-9.9554,-5.8333,-0.5684,-4.0919,-4.083
1760.0,0.2138,-9.9554,-5.8333,-0.5684,-4.0919,-4.083
1766.0,0.2138,-9.9554,-5.8333,-0.5684,-4.0919,-4.083
1770.0,0.2138,-9.9554,-5.8333,-0.5684,-4.0919,-4.083
1775.0,-2.4538,-8.9639,2.0715,-0.5684,-4.0919,-4.083
1781.0,-2.4538,-8.9639,2.0715,-0.5684,-4.0919,-4.083
1786.0,-2.4538,-8.9639,2.0715,-0.4896,-0.9013,-1.1074
1790.0,-2.4538,-8.9639,2.0715,-0.4896,-0.9013,-1.1074
1795.0,-2.4538,-8.9639,2.0715,-0.4896,-0.9013,-1.1074
1801.0,-6.7162,-13.0633,-3.5253,-0.4896,-0.9013,-1.1074
1805.0,-6.7162,-13.0633,-3.5253,-0.4896,-0.9013,-1.1074
1810.0,-6.7162,-13.0633,-3.5253,-0.4896,-0.9013,-1.1074
1815.0,-6.7162,-13.0633,-3.5253,-0.4896,-0.9013,-1.1074
1820.0,-6.7162,-13.0633,-3.5253,0.8983,2.1286,0.3403
1825.0,-6.7162,-13.0633,-3.5253,0.8983,2.1286,0.3403
1830.0,-3.3303,-10.9087,-5.7527,0.8983,2.1286,0.3403
1835.0,-3.3303,-10.9087,-5.7527,0.8983,2.1286,0.3403
1840.0,-3.3303,-10.9087,-5.7527,0.8983,2.1286,0.3403
1845.0,-3.3303,-10.9087,-5.7527,0.8983,2.1286,0.3403
1850.0,-3.3303,-10.9087,-5.7527,1.34,-0.7938,0.8315
1855.0,-2.224,-8.4633,-5.1034,1.34,-0.7938,0.8315
1860.0,-2.224,-8.4633,-5.1034,1.34,-0.7938,0.8315
1865.0,-2.224,-8.4633,-5.1034,1.34,-0.7938,0.8315
1870.0,-2.224,-8.4633,-5.1034,1.34,-0.7938,0.8315
1875.0,-2.224,-8.4633,-5.1034,1.34,-0.7938,0.8315
1880.0,-2.224,-8.4633,-5.1034,0.6381,-3.1274,2.0782
1885.0,-2.2287,-5.1743,-3.7623,0.6381,-3.1274,2.0782
1891.0,-2.2287,-5.1743,-3.7623,0.6381,-3.1274,2.0782
1896.0,-2.2287,-5.1743,-3.7623,0.6381,-3.1274,2.0782
1900.0,-2.2287,-5.1743,-3.7623,0.6381,-3.1274,2.0782
1905.0,-2.2287,-5.1743,-3.7623,0.6381,-3.1274,2.0782
1911.0,-3.9385,-9.0783,0.7682,0.7047,-1.3412,2.0807
1915.0,-3.9385,-9.0783,0.7682,0.7047,-1.3412,2.0807
1920.0,-3.9385,-9.0783,0.7682,0.7047,-1.3412,2.0807
1925.0,-3.9385,-9.0783,0.7682,0.7047,-1.3412,2.0807
1930.0,-3.9385,-9.0783,0.7682,0.7047,-1.3412,2.0807
1935.0,-2.7699,-8.8924,0.9625,0.7047,-1.3412,2.0807
1940.0,-2.7699,-8.8924,0.9625,0.7047,-1.3412,2.0807
1945.0,-2.7699,-8.8924,0.9625,1.0321,0.8983,2.1295
1950.0,-2.7699,-8.8924,0.9625,1.0321,0.8983,2.1295
1955.0,-2.7699,-8.8924,0.9625,1.0321,0.8983,2.1295
1960.0,-2.7699,-8.8924,0.9625,1.0321,0.8983,2.1295
1965.0,-1.7738,-8.2012,-2.2174,1.0321,0.8983,2.1295
1970.0,-1.7738,-8.2012,-2.2174,1.0321,0.8983,2.1295
1976.0,-1.7738,-8.2012,-2.2174,0.2636,0.6075,1.8516
1980.0,-1.7738,-8.2012,-2.2174,0.2636,0.6075,1.8516
1985.0,-1.7738,-8.2012,-2.2174,0.2636,0.6075,1.8516
1990.0,-1.7738,-8.2012,-2.2174,0.2636,0.6075,1.8516
1996.0,0.5634,-5.0312,-5.4162,0.2636,0.6075,1.8516
2000.0,0.5634,-5.0312,-5.4162,0.2636,0.6075,1.8516
2005.0,0.5634,-5.0312,-5.4162,-1.1786,0.0034,0.6983
2010.0,0.5634,-5.0312,-5.4162,-1.1786,0.0034,0.6983
2015.0,0.5634,-5.0312,-5.4162,-1.1786,0.0034,0.6983
2020.0,-0.9787,-9.0211,-3.8665,-1.1786,0.0034,0.6983
2025.0,-0.9787,-9.0211,-3.8665,-1.1786,0.0034,0.6983
2030.0,-0.9787,-9.0211,-3.8665,-1.1786,0.0034,0.6983
2035.0,-0.9787,-9.0211,-3.8665,-1.0815,0.6216,0.1479
2040.0,-0.9787,-9.0211,-3.8665,-1.0815,0.6216,0.1479
2045.0,-1.3667,-9.1641,-3.3974,-1.0815,0.6216,0.1479
2050.0,-1.3667,-9.1641,-3.3974,-1.0815,0.6216,0.1479
2055.0,-1.3667,-9.1641,-3.3974,-1.0815,0.6216,0.1479
2060.0,-1.3667,-9.1641,-3.3974,-1.0815,0.6216,0.1479
2065.0,-1.3667,-9.1641,-3.3974,-0.5928,0.5654,-0.3933
2071.0,-1.3667,-9.1641,-3.3974,-0.5928,0.5654,-0.3933
2076.0,-1.4864,-6.2563,-2.7007,-0.5928,0.5654,-0.3933
2080.0,-1.4864,-6.2563,-2.7007,-0.5928,0.5654,-0.3933
2085.0,-1.4864,-6.2563,-2.7007,-0.5928,0.5654,-0.3933
2091.0,-1.4864,-6.2563,-2.7007,-0.5928,0.5654,-0.3933
2095.0,-1.4864,-6.2563,-2.7007,-0.5928,0.5654,-0.3933
2100.0,-2.7843,-5.6605,-0.8715,-0.4609,-0.5,-0.7941
2105.0,-2.7843,-5.6605,-0.8715,-0.4609,-0.5,-0.7941
2110.0,-2.7843,-5.6605,-0.8715,-0.4609,-0.5,-0.7941
2115.0,-2.7843,-5.6605,-0.8715,-0.4609,-0.5,-0.7941
2120.0,-2.7843,-5.6605,-0.8715,-0.4609,-0.5,-0.7941
2125.0,-3.2776,-5.6223,1.8298,-0.4609,-0.5,-0.7941
2131.0,-3.2776,-5.6223,1.8298,-0.0088,-1.4218,-0.7421
2135.0,-3.2776,-5.6223,1.8298,-0.0088,-1.4218,-0.7421
2140.0,-3.2776,-5.6223,1.8298,-0.0088,-1.4218,-0.7421
2145.0,-3.2776,-5.6223,1.8298,-0.0088,-1.4218,-0.7421
2150.0,-3.2776,-5.6223,1.8298,-0.0088,-1.4218,-0.7421
2155.0,-3.2919,-4.3019,1.5265,-0.0088,-1.4218,-0.7421
2161.0,-3.2919,-4.3019,1.5265,0.6503,-1.4438,-0.0036
2165.0,-3.2919,-4.3019,1.5265,0.6503,-1.4438,-0.0036
2170.0,-3.2919,-4.3019,1.5265,0.6503,-1.4438,-0.0036
2176.0,-3.2919,-4.3019,1.5265,0.6503,-1.4438,-0.0036
2180.0,-3.5075,-6.5137,-1.4023,0.6503,-1.4438,-0.0036
2185.0,-3.5075,-6.5137,-1.4023,0.6503,-1.4438,-0.0036
2190.0,-3.5075,-6.5137,-1.4023,0.7334,-2.0144,0.5871
2195.0,-3.5075,-6.5137,-1.4023,0.7334,-2.0144,0.5871
2200.0,-3.5075,-6.5137,-1.4023,0.7334,-2.0144,0.5871
2205.0,-3.5075,-6.5137,-1.4023,0.7334,-2.0144,0.5871
2210.0,-7.5448,-15.1702,-11.0936,0.7334,-2.0144,0.5871
2215.0,-7.5448,-15.1702,-11.0936,0.7334,-2.0144,0.5871
2220.0,-7.5448,-15.1702,-11.0936,1.4005,-0.7627,-1.7598
2225.0,-7.5448,-15.1702,-11.0936,1.4005,-0.7627,-1.7598
2230.0,-7.5448,-15.1702,-11.0936,1.4005,-0.7627,-1.7598
2235.0,-5.8638,-11.3473,3.7444,1.4005,-0.7627,-1.7598
2240.0,-5.8638,-11.3473,3.7444,1.4005,-0.7627,-1.7598
2245.0,-5.8638,-11.3473,3.7444,1.4005,-0.7627,-1.7598
2250.0,-5.8638,-11.3473,3.7444,1.3119,-0.5043,0.6738
2255.0,-5.8638,-11.3473,3.7444,1.3119,-0.5043,0.6738
2260.0,-5.8638,-11.3473,3.7444,1.3119,-0.5043,0.6738
2265.0,-7.5496,-14.7031,3.7681,1.3119,-0.5043,0.6738
2270.0,-7.5496,-14.7031,3.7681,1.3119,-0.5043,0.6738
2275.0,-7.5496,-14.7031,3.7681,1.3119,-0.5043,0.6738
2280.0,-7.5496,-14.7031,3.7681,0.1305,-0.2043,1.9487
2285.0,-7.5496,-14.7031,3.7681,0.1305,-0.2043,1.9487
2290.0,-4.403,-11.9765,-1.5444,0.1305,-0.2043,1.9487
2295.0,-4.403,-11.9765,-1.5444,0.1305,-0.2043,1.9487
2300.0,-4.403,-11.9765,-1.5444,0.1305,-0.2043,1.9487
2305.0,-4.403,-11.9765,-1.5444,0.1305,-0.2043,1.9487
2311.0,-4.403,-11.9765,-1.5444,0.1305,-0.2043,1.9487
2315.0,-4.403,-11.9765,-1.5444,-0.7816,2.7553,-0.2877
2320.0,-7.4777,-15.2322,2.3558,-0.7816,2.7553,-0.2877
2326.0,-7.4777,-15.2322,2.3558,-0.7816,2.7553,-0.2877
2330.0,-7.4777,-15.2322,2.3558,-0.7816,2.7553,-0.2877
2335.0,-7.4777,-15.2322,2.3558,-0.7816,2.7553,-0.2877
2341.0,-7.4777,-15.2322,2.3558,-0.7816,2.7553,-0.2877
2345.0,-12.085,-15.4086,-13.2404,0.6063,-0.6032,0.8284
2350.0,-12.085,-15.4086,-13.2404,0.6063,-0.6032,0.8284
2355.0,-12.085,-15.4086,-13.2404,0.6063,-0.6032,0.8284
2360.0,-12.085,-15.4086,-13.2404,0.6063,-0.6032,0.8284
2366.0,-12.085,-15.4086,-13.2404,0.6063,-0.6032,0.8284
2370.0,-2.5113,-8.43,0.7256,0.6063,-0.6032,0.8284
2375.0,-2.5113,-8.43,0.7256,0.7493,-0.3045,-0.9174
2381.0,-2.5113,-8.43,0.7256,0.7493,-0.3045,-0.9174
2385.0,-2.5113,-8.43,0.7256,0.7493,-0.3045,-0.9174
2390.0,-2.5113,-8.43,0.7256,0.7493,-0.3045,-0.9174
2395.0,-2.6214,-7.2287,1.209,0.7493,-0.3045,-0.9174
2401.0,-2.6214,-7.2287,1.209,0.7493,-0.3045,-0.9174
2405.0,-2.6214,-7.2287,1.209,0.5269,-1.1665,-0.0384
2410.0,-2.6214,-7.2287,1.209,0.5269,-1.1665,-0.0384
2415.0,-2.6214,-7.2287,1.209,0.5269,-1.1665,-0.0384
2420.0,-2.6214,-7.2287,1.209,0.5269,-1.1665,-0.0384
2426.0,-2.7268,-7.1239,2.1758,0.5269,-1.1665,-0.0384
2431.0,-2.7268,-7.1239,2.1758,0.5269,-1.1665,-0.0384
2435.0,-2.7268,-7.1239,2.1758,-0.0131,-0.7621,0.6488
2440.0,-2.7268,-7.1239,2.1758,-0.0131,-0.7621,0.6488
2445.0,-2.7268,-7.1239,2.1758,-0.0131,-0.7621,0.6488
2450.0,-2.7268,-7.1239,2.1758,-0.0131,-0.7621,0.6488
2455.0,-4.7096,-10.6704,2.7823,-0.0131,-0.7621,0.6488
2460.0,-4.7096,-10.6704,2.7823,-0.0131,-0.7621,0.6488
2465.0,-4.7096,-10.6704,2.7823,-0.0546,0.109,1.1919
2470.0,-4.7096,-10.6704,2.7823,-0.0546,0.109,1.1919
2476.0,-4.7096,-10.6704,2.7823,-0.0546,0.109,1.1919
2480.0,-4.1588,-10.7848,1.3132,-0.0546,0.109,1.1919
2485.0,-4.1588,-10.7848,1.3132,-0.0546,0.109,1.1919
2490.0,-4.1588,-10.7848,1.3132,-0.0546,0.109,1.1919
2495.0,-4.1588,-10.7848,1.3132,-0.0546,0.109,1.1919
2501.0,-4.1588,-10.7848,1.3132,-0.0656,-0.1469,1.7826
2505.0,-4.1588,-10.7848,1.3132,-0.0656,-0.1469,1.7826
2510.0,-2.6694,-8.6064,-0.0516,-0.0656,-0.1469,1.7826
2515.0,-2.6694,-8.6064,-0.0516,-0.0656,-0.1469,1.7826
2521.0,-2.6694,-8.6064,-0.0516,-0.0656,-0.1469,1.7826
2525.0,-2.6694,-8.6064,-0.0516,-0.0656,-0.1469,1.7826
2530.0,-2.6694,-8.6064,-0.0516,-0.481,1.3015,1.5217
2535.0,-3.1962,-6.0943,-5.857,-0.481,1.3015,1.5217
2540.0,-3.1962,-6.0943,-5.857,-0.481,1.3015,1.5217
2545.0,-3.1962,-6.0943,-5.857,-0.481,1.3015,1.5217
2551.0,-3.1962,-6.0943,-5.857,-0.481,1.3015,1.5217
2555.0,-3.1962,-6.0943,-5.857,-0.481,1.3015,1.5217
2560.0,-4.4749,-7.572,-1.824,-0.3527,1.0406,0.5602
2565.0,-4.4749,-7.572,-1.824,-0.3527,1.0406,0.5602
2570.0,-4.4749,-7.572,-1.824,-0.3527,1.0406,0.5602
2575.0,-4.4749,-7.572,-1.824,-0.3527,1.0406,0.5602
2580.0,-4.4749,-7.572,-1.824,-0.3527,1.0406,0.5602
2585.0,-4.9107,-6.7616,-1.4733,-0.3527,1.0406,0.5602
2590.0,-4.9107,-6.7616,-1.4733,-0.0076,-0.9343,-0.174
2595.0,-4.9107,-6.7616,-1.4733,-0.0076,-0.9343,-0.174
2600.0,-4.9107,-6.7616,-1.4733,-0.0076,-0.9343,-0.174
2605.0,-4.9107,-6.7616,-1.4733,-0.0076,-0.9343,-0.174
2610.0,-4.7479,-4.5498,-5.1745,-0.0076,-0.9343,-0.174
2615.0,-4.7479,-4.5498,-5.1745,-0.0076,-0.9343,-0.174
2620.0,-4.7479,-4.5498,-5.1745,-0.0076,-0.9343,-0.174
2626.0,-4.7479,-4.5498,-5.1745,0.4591,-1.1695,-1.3915
2630.0,-4.7479,-4.5498,-5.1745,0.4591,-1.1695,-1.3915
2635.0,-4.7479,-4.5498,-5.1745,0.4591,-1.1695,-1.3915
2640.0,-4.1732,-5.9751,2.0051,0.4591,-1.1695,-1.3915
2645.0,-4.1732,-5.9751,2.0051,0.4591,-1.1695,-1.3915
2650.0,-4.1732,-5.9751,2.0051,0.4591,-1.1695,-1.3915
2656.0,-4.1732,-5.9751,2.0051,0.3266,0.0351,-1.2394
2660.0,-4.1732,-5.9751,2.0051,0.3266,0.0351,-1.2394
2665.0,-5.5429,-5.7129,0.1853,0.3266,0.0351,-1.2394
2670.0,-5.5429,-5.7129,0.1853,0.3266,0.0351,-1.2394
2675.0,-5.5429,-5.7129,0.1853,0.3266,0.0351,-1.2394
2681.0,-5.5429,-5.7129,0.1853,0.3565,-0.5257,-0.5503
2685.0,-5.5429,-5.7129,0.1853,0.3565,-0.5257,-0.5503
2691.0,-5.198,-3.1531,-3.459,0.3565,-0.5257,-0.5503
2695.0,-5.198,-3.1531,-3.459,0.3565,-0.5257,-0.5503
2700.0,-5.198,-3.1531,-3.459,0.3565,-0.5257,-0.5503
2705.0,-5.198,-3.1531,-3.459,0.3565,-0.5257,-0.5503
2710.0,-5.198,-3.1531,-3.459,0.3565,-0.5257,-0.5503
2715.0,-5.198,-3.1531,-3.459,0.4048,0.8164,-1.3335
2720.0,-3.5649,-3.9206,1.6829,0.4048,0.8164,-1.3335
2725.0,-3.5649,-3.9206,1.6829,0.4048,0.8164,-1.3335
2730.0,-3.5649,-3.9206,1.6829,0.4048,0.8164,-1.3335
2736.0,-3.5649,-3.9206,1.6829,0.4048,0.8164,-1.3335
2741.0,-3.5649,-3.9206,1.6829,0.4048,0.8164,-1.3335
2745.0,-3.6847,-3.5297,-0.5113,0.0981,0.8573,-0.5332
2751.0,-3.6847,-3.5297,-0.5113,0.0981,0.8573,-0.5332
2755.0,-3.6847,-3.5297,-0.5113,0.0981,0.8573,-0.5332
2760.0,-3.6847,-3.5297,-0.5113,0.0981,0.8573,-0.5332
2766.0,-3.6847,-3.5297,-0.5113,0.0981,0.8573,-0.5332
2770.0,-3.6847,-3.5297,-0.5113,0.0981,0.8573,-0.5332
2775.0,-5.5046,-7.1096,-2.279,0.2966,0.6454,-0.1838
2780.0,-5.5046,-7.1096,-2.279,0.2966,0.6454,-0.1838
2785.0,-5.5046,-7.1096,-2.279,0.2966,0.6454,-0.1838
2790.0,-5.5046,-7.1096,-2.279,0.2966,0.6454,-0.1838
2796.0,-5.5046,-7.1096,-2.279,0.2966,0.6454,-0.1838
2800.0,-5.5094,-8.368,-1.9851,0.2966,0.6454,-0.1838
2805.0,-5.5094,-8.368,-1.9851,0.365,1.343,-0.8509
2810.0,-5.5094,-8.368,-1.9851,0.365,1.343,-0.8509
2815.0,-5.5094,-8.368,-1.9851,0.365,1.343,-0.8509
2820.0,-5.5094,-8.368,-1.9851,0.365,1.343,-0.8509
2825.0,-7.9566,-11.3234,-1.6155,0.365,1.343,-0.8509
2830.0,-7.9566,-11.3234,-1.6155,0.365,1.343,-0.8509
2835.0,-7.9566,-11.3234,-1.6155,0.365,1.343,-0.8509
2840.0,-7.9566,-11.3234,-1.6155,1.0131,2.0412,-1.1618
2845.0,-7.9566,-11.3234,-1.6155,1.0131,2.0412,-1.1618
2851.0,-7.9566,-11.3234,-1.6155,1.0131,2.0412,-1.1618
2856.0,-11.4001,-14.8223,-3.459,1.0131,2.0412,-1.1618
2860.0,-11.4001,-14.8223,-3.459,1.0131,2.0412,-1.1618
2865.0,-11.4001,-14.8223,-3.459,1.0131,2.0412,-1.1618
2870.0,-11.4001,-14.8223,-3.459,1.0131,2.0412,-1.1618
2875.0,-11.4001,-14.8223,-3.459,1.8305,2.2562,-1.3554
2880.0,-9.3886,-12.763,-3.5633,1.8305,2.2562,-1.3554
2885.0,-9.3886,-12.763,-3.5633,1.8305,2.2562,-1.3554
2890.0,-9.3886,-12.763,-3.5633,1.8305,2.2562,-1.3554
2895.0,-9.3886,-12.763,-3.5633,1.8305,2.2562,-1.3554
2900.0,-9.3886,-12.763,-3.5633,1.8305,2.2562,-1.3554
2905.0,-9.3886,-12.763,-3.5633,1.4786,2.985,-1.4055
2910.0,-3.4596,-9.2975,-1.5349,1.4786,2.985,-1.4055
2915.0,-3.4596,-9.2975,-1.5349,1.4786,2.985,-1.4055
2921.0,-3.4596,-9.2975,-1.5349,1.4786,2.985,-1.4055
2925.0,-3.4596,-9.2975,-1.5349,1.4786,2.985,-1.4055
2930.0,-3.4596,-9.2975,-1.5349,1.4786,2.985,-1.4055
2935.0,-3.6703,-11.19,-5.5584,0.8989,1.4902,-1.3322
2940.0,-3.6703,-11.19,-5.5584,0.8989,1.4902,-1.3322
2945.0,-3.6703,-11.19,-5.5584,0.8989,1.4902,-1.3322
2951.0,-3.6703,-11.19,-5.5584,0.8989,1.4902,-1.3322
2955.0,-3.6703,-11.19,-5.5584,0.8989,1.4902,-1.3322
2961.0,-3.6703,-11.19,-5.5584,0.8989,1.4902,-1.3322
2965.0,-8.6798,-16.1141,-5.5205,0.6466,-1.0174,-1.499
2970.0,-8.6798,-16.1141,-5.5205,0.6466,-1.0174,-1.499
2976.0,-8.6798,-16.1141,-5.5205,0.6466,-1.0174,-1.499
2980.0,-8.6798,-16.1141,-5.5205,0.6466,-1.0174,-1.499
2985.0,-8.6798,-16.1141,-5.5205,0.6466,-1.0174,-1.499
2995.0,-6.2134,-10.1031,-2.3974,0.5171,-0.5764,-1.1496
2996.0,-6.2134,-10.1031,-2.3974,0.5171,-0.5764,-1.1496
3001.0,-6.2134,-10.1031,-2.3974,0.5171,-0.5764,-1.1496
3005.0,-6.2134,-10.1031,-2.3974,0.5171,-0.5764,-1.1496
3010.0,-6.2134,-10.1031,-2.3974,0.5171,-0.5764,-1.1496
3015.0,-6.2134,-5.7034,-2.696,0.5171,-0.5764,-1.1496
3020.0,-3.3542,-5.7034,-2.696,0.5171,-0.5764,-1.1496
3026.0,-3.3542,-5.7034,-2.696,0.2214,-0.4151,-0.2314
3030.0,-3.3542,-5.7034,-2.696,0.2214,-0.4151,-0.2314
3035.0,-3.3542,-5.7034,-2.696,0.2214,-0.4151,-0.2314
3040.0,-3.3542,-5.7034,-2.696,0.2214,-0.4151,-0.2314
3045.0,-3.2919,-5.1886,-2.3264,0.2214,-0.4151,-0.2314
3051.0,-3.2919,-5.1886,-2.3264,0.2214,-0.4151,-0.2314
3056.0,-3.2919,-5.1886,-2.3264,-0.1646,-0.5312,0.4802
3061.0,-3.2919,-5.1886,-2.3264,-0.1646,-0.5312,0.4802
3065.0,-3.2919,-5.1886,-2.3264,-0.1646,-0.5312,0.4802
3070.0,-3.2919,-5.1886,-2.3264,-0.1646,-0.5312,0.4802
3076.0,-4.6952,-6.037,-1.8714,-0.1646,-0.5312,0.4802
3080.0,-4.6952,-6.037,-1.8714,-0.1646,-0.5312,0.4802
3085.0,-4.6952,-6.037,-1.8714,-0.5079,-0.6448,0.9872
3090.0,-4.6952,-6.037,-1.8714,-0.5079,-0.6448,0.9872
3095.0,-4.6952,-6.037,-1.8714,-0.5079,-0.6448,0.9872
3100.0,-5.7871,-6.1228,-3.1036,-0.5079,-0.6448,0.9872
3105.0,-5.7871,-6.1228,-3.1036,-0.5079,-0.6448,0.9872
3111.0,-5.7871,-6.1228,-3.1036,-0.5079,-0.6448,0.9872
3115.0,-5.7871,-6.1228,-3.1036,-0.6881,-1.0834,1.3977
3120.0,-5.7871,-6.1228,-3.1036,-0.6881,-1.0834,1.3977
3125.0,-4.6377,-6.3183,-3.1747,-0.6881,-1.0834,1.3977
3130.0,-4.6377,-6.3183,-3.1747,-0.6881,-1.0834,1.3977
3136.0,-4.6377,-6.3183,-3.1747,-0.6881,-1.0834,1.3977
3140.0,-4.6377,-6.3183,-3.1747,-0.6881,-1.0834,1.3977
3145.0,-4.6377,-6.3183,-3.1747,-0.6881,-1.0834,1.3977
3150.0,-3.9241,-6.161,-2.8524,-0.8439,-0.5538,1.5639
3155.0,-3.9241,-6.161,-2.8524,-0.8439,-0.5538,1.5639
3160.0,-3.9241,-6.161,-2.8524,-0.8439,-0.5538,1.5639
3165.0,-3.9241,-6.161,-2.8524,-0.8439,-0.5538,1.5639
3170.0,-3.9241,-6.161,-2.8524,-0.8439,-0.5538,1.5639
3175.0,-3.9241,-6.161,-2.8524,-0.8439,-0.5538,1.5639
3180.0,-3.8235,-6.6472,-1.4875,-0.814,0.1457,1.2749
3185.0,-3.8235,-6.6472,-1.4875,-0.814,0.1457,1.2749
3190.0,-3.8235,-6.6472,-1.4875,-0.814,0.1457,1.2749
3195.0,-3.8235,-6.6472,-1.4875,-0.814,0.1457,1.2749
3200.0,-3.8235,-6.6472,-1.4875,-0.814,0.1457,1.2749
3205.0,-3.3542,-5.7129,-3.5301,-0.814,0.1457,1.2749
3210.0,-3.3542,-5.7129,-3.5301,-0.6038,-0.274,1.0025
3216.0,-3.3542,-5.7129,-3.5301,-0.6038,-0.274,1.0025
3220.0,-3.3542,-5.7129,-3.5301,-0.6038,-0.274,1.0025
3225.0,-3.3542,-5.7129,-3.5301,-0.6038,-0.274,1.0025
3230.0,-3.4835,-5.2458,-3.3216,-0.6038,-0.274,1.0025
3235.0,-3.4835,-5.2458,-3.3216,-0.6038,-0.274,1.0025
3240.0,-3.4835,-5.2458,-3.3216,-0.6038,-0.274,1.0025
3245.0,-3.4835,-5.2458,-3.3216,-0.8354,-1.2276,0.6702
3250.0,-3.4835,-5.2458,-3.3216,-0.8354,-1.2276,0.6702
3255.0,-3.4835,-5.2458,-3.3216,-0.8354,-1.2276,0.6702
3260.0,-5.2029,-5.8321,-2.388,-0.8354,-1.2276,0.6702
3265.0,-5.2029,-5.8321,-2.388,-0.8354,-1.2276,0.6702
3271.0,-5.2029,-5.8321,-2.388,-0.8354,-1.2276,0.6702
3275.0,-5.2029,-5.8321,-2.388,-0.897,-0.7694,0.3849
3280.0,-5.2029,-5.8321,-2.388,-0.897,-0.7694,0.3849
3285.0,-6.6683,-6.323,-0.9094,-0.897,-0.7694,0.3849
3291.0,-6.6683,-6.323,-0.9094,-0.897,-0.7694,0.3849
3296.0,-6.6683,-6.323,-0.9094,-0.897,-0.7694,0.3849
3300.0,-6.6683,-6.323,-0.9094,-0.897,-0.7694,0.3849
3305.0,-6.6683,-6.323,-0.9094,-0.3784,0.2361,0.6286
3310.0,-6.3092,-6.6377,0.1853,-0.3784,0.2361,0.6286
3315.0,-6.3092,-6.6377,0.1853,-0.3784,0.2361,0.6286
3320.0,-6.3092,-6.6377,0.1853,-0.3784,0.2361,0.6286
3325.0,-6.3092,-6.6377,0.1853,-0.3784,0.2361,0.6286
3330.0,-6.3092,-6.6377,0.1853,-0.3784,0.2361,0.6286
3335.0,-6.3092,-6.6377,0.1853,0.0865,0.4603,1.0074
3340.0,-3.1579,-6.5948,-3.3358,0.0865,0.4603,1.0074
3345.0,-3.1579,-6.5948,-3.3358,0.0865,0.4603,1.0074
3351.0,-3.1579,-6.5948,-3.3358,0.0865,0.4603,1.0074
3355.0,-3.1579,-6.5948,-3.3358,0.0865,0.4603,1.0074
3360.0,-3.1579,-6.5948,-3.3358,0.0865,0.4603,1.0074
3365.0,-3.5027,-7.734,-5.7053,0.0865,0.4603,1.0074
3370.0,-3.5027,-7.734,-5.7053,0.0987,-0.1488,0.3824
3375.0,-3.5027,-7.734,-5.7053,0.0987,-0.1488,0.3824
3380.0,-3.5027,-7.734,-5.7053,0.0987,-0.1488,0.3824
3385.0,-3.5027,-7.734,-5.7053,0.0987,-0.1488,0.3824
3390.0,-3.5027,-7.734,-5.7053,0.0987,-0.1488,0.3824
3396.0,-4.9394,-5.8845,-5.6627,0.0987,-0.1488,0.3824
3400.0,-4.9394,-5.8845,-5.6627,0.5569,-1.39,-0.9786
3405.0,-4.9394,-5.8845,-5.6627,0.5569,-1.39,-0.9786
3410.0,-4.9394,-5.8845,-5.6627,0.5569,-1.39,-0.9786
3415.0,-4.9394,-5.8845,-5.6627,0.5569,-1.39,-0.9786
3420.0,-3.9433,-3.1913,-2.7529,0.5569,-1.39,-0.9786
3425.0,-3.9433,-3.1913,-2.7529,0.5569,-1.39,-0.9786
3430.0,-3.9433,-3.1913,-2.7529,0.3724,-1.905,-1.4221
3435.0,-3.9433,-3.1913,-2.7529,0.3724,-1.905,-1.4221
3440.0,-3.9433,-3.1913,-2.7529,0.3724,-1.905,-1.4221
3445.0,-3.9433,-3.1913,-2.7529,0.3724,-1.905,-1.4221
3450.0,-4.5563,-9.2213,0.9009,0.3724,-1.905,-1.4221
3455.0,-4.5563,-9.2213,0.9009,0.3724,-1.905,-1.4221
3460.0,-4.5563,-9.2213,0.9009,0.3724,-1.905,-1.4221
3466.0,-4.5563,-9.2213,0.9009,-0.2324,-0.1005,-0.4398
3470.0,-4.5563,-9.2213,0.9009,-0.2324,-0.1005,-0.4398
3476.0,-6.8886,-16.4859,-3.459,-0.2324,-0.1005,-0.4398
3480.0,-6.8886,-16.4859,-3.459,-0.2324,-0.1005,-0.4398
3485.0,-6.8886,-16.4859,-3.459,-0.2324,-0.1005,-0.4398
3490.0,-6.8886,-16.4859,-3.459,-0.2324,-0.1005,-0.4398
3495.0,-6.8886,-16.4859,-3.459,-0.5348,1.4413,1.1448
3500.0,-7.9998,-16.6861,-0.952,-0.5348,1.4413,1.1448
3505.0,-7.9998,-16.6861,-0.952,-0.5348,1.4413,1.1448
3510.0,-7.9998,-16.6861,-0.952,-0.5348,1.4413,1.1448
3515.0,-7.9998,-16.6861,-0.952,-0.5348,1.4413,1.1448
3520.0,-7.9998,-16.6861,-0.952,-0.5348,1.4413,1.1448
3525.0,-6.5343,-9.2165,0.7967,-0.8561,-0.8433,1.0471
3530.0,-6.5343,-9.2165,0.7967,-0.8561,-0.8433,1.0471
3535.0,-6.5343,-9.2165,0.7967,-0.8561,-0.8433,1.0471
3541.0,-6.5343,-9.2165,0.7967,-0.8561,-0.8433,1.0471
3545.0,-6.5343,-9.2165,0.7967,-0.8561,-0.8433,1.0471
3550.0,-6.5343,-9.2165,0.7967,-0.8561,-0.8433,1.0471
3555.0,-4.6425,-6.2325,4.3225,-0.4535,-0.2104,-0.4227
3560.0,-4.6425,-6.2325,4.3225,-0.4535,-0.2104,-0.4227
3565.0,-4.6425,-6.2325,4.3225,-0.4535,-0.2104,-0.4227
3570.0,-4.6425,-6.2325,4.3225,-0.4535,-0.2104,-0.4227
3575.0,-4.6425,-6.2325,4.3225,-0.4535,-0.2104,-0.4227
3580.0,-9.3072,-10.8801,3.7728,-0.4535,-0.2104,-0.4227
3585.0,-9.3072,-10.8801,3.7728,0.0633,1.4108,-0.4141
3590.0,-9.3072,-10.8801,3.7728,0.0633,1.4108,-0.4141
3595.0,-9.3072,-10.8801,3.7728,0.0633,1.4108,-0.4141
3601.0,-9.3072,-10.8801,3.7728,0.0633,1.4108,-0.4141
3605.0,-9.3072,-10.8801,3.7728,0.0633,1.4108,-0.4141
3610.0,-16.1989,-13.9309,-16.245,0.0633,1.4108,-0.4141
3615.0,-16.1989,-13.9309,-16.245,0.2649,-5.1573,-0.182
3620.0,-16.1989,-13.9309,-16.245,0.2649,-5.1573,-0.182
3625.0,-16.1989,-13.9309,-16.245,0.2649,-5.1573,-0.182
3630.0,-16.1989,-13.9309,-16.245,0.2649,-5.1573,-0.182
3635.0,-5.9356,-9.0449,4.6211,0.2649,-5.1573,-0.182
3640.0,-5.9356,-9.0449,4.6211,0.2649,-5.1573,-0.182
3645.0,-5.9356,-9.0449,4.6211,0.2649,-5.1573,-0.182
3650.0,-5.9356,-9.0449,4.6211,0.4695,0.533,-1.0287
3655.0,-5.9356,-9.0449,4.6211,0.4695,0.533,-1.0287
3660.0,-5.9356,-9.0449,4.6211,0.4695,0.533,-1.0287
3665.0,-3.1866,-4.9025,0.7398,0.4695,0.533,-1.0287
3670.0,-3.1866,-4.9025,0.7398,0.4695,0.533,-1.0287
3675.0,-3.1866,-4.9025,0.7398,0.4695,0.533,-1.0287
3680.0,-3.1866,-4.9025,0.7398,0.5831,0.0284,0.8821
3685.0,-3.1866,-4.9025,0.7398,0.5831,0.0284,0.8821
3690.0,-3.177,-5.16,1.4886,0.5831,0.0284,0.8821
3695.0,-3.177,-5.16,1.4886,0.5831,0.0284,0.8821
3700.0,-3.177,-5.16,1.4886,0.5831,0.0284,0.8821
3705.0,-3.177,-5.16,1.4886,0.5831,0.0284,0.8821
3712.0,-3.177,-5.16,1.4886,-0.2855,0.0766,1.0935
3716.0,-3.177,-5.16,1.4886,-0.2855,0.0766,1.0935
3720.0,-3.177,-5.16,1.4886,-0.2855,0.0766,1.0935
3727.0,-5.562,-9.8838,0.863,-0.2855,0.0766,1.0935
3730.0,-5.562,-9.8838,0.863,-0.2855,0.0766,1.0935
3735.0,-5.562,-9.8838,0.863,-0.2855,0.0766,1.0935
3740.0,-5.562,-9.8838,0.863,-0.2855,0.0766,1.0935
3745.0,-5.562,-9.8838,0.863,-0.3625,-0.858,1.2322
3750.0,-5.562,-9.8838,0.863,-0.3625,-0.858,1.2322
3755.0,-3.9624,-8.9353,0.683,-0.3625,-0.858,1.2322
3766.0,-3.9624,-8.9353,0.683,-0.3625,-0.858,1.2322
3767.0,-3.9624,-8.9353,0.683,-0.3625,-0.858,1.2322
3771.0,-3.9624,-8.9353,0.683,-0.3625,-0.858,1.2322
3775.0,-3.9624,-8.9353,0.683,-0.379,-1.7443,1.1295
3780.0,-2.6454,-6.4947,0.8109,-0.379,-1.7443,1.1295
3785.0,-2.6454,-6.4947,0.8109,-0.379,-1.7443,1.1295
3790.0,-2.6454,-6.4947,0.8109,-0.379,-1.7443,1.1295
3795.0,-2.6454,-6.4947,0.8109,-0.379,-1.7443,1.1295
3800.0,-2.6454,-6.4947,0.8109,-0.379,-1.7443,1.1295
3805.0,-5.0592,-6.6615,-3.2789,-0.434,0.3913,0.8357
3810.0,-5.0592,-6.6615,-3.2789,-0.434,0.3913,0.8357
3815.0,-5.0592,-6.6615,-3.2789,-0.434,0.3913,0.8357
3820.0,-5.0592,-6.6615,-3.2789,-0.434,0.3913,0.8357
3825.0,-5.0592,-6.6615,-3.2789,-0.434,0.3913,0.8357
3830.0,-5.0592,-6.6615,-3.2789,-0.434,0.3913,0.8357
3835.0,-6.6013,-7.3193,-3.8097,-0.434,0.3913,0.8357
3840.0,-6.6013,-7.3193,-3.8097,-0.1908,0.3051,0.4643
3846.0,-6.6013,-7.3193,-3.8097,-0.1908,0.3051,0.4643
3850.0,-6.6013,-7.3193,-3.8097,-0.1908,0.3051,0.4643
3855.0,-6.6013,-7.3193,-3.8097,-0.1908,0.3051,0.4643
3860.0,-6.2277,-6.4565,-0.4781,-0.1908,0.3051,0.4643
3865.0,-6.2277,-6.4565,-0.4781,-0.1908,0.3051,0.4643
3870.0,-6.2277,-6.4565,-0.4781,0.0327,0.1671,-0.2767
3875.0,-6.2277,-6.4565,-0.4781,0.0327,0.1671,-0.2767
3880.0,-6.2277,-6.4565,-0.4781,0.0327,0.1671,-0.2767
3885.0,-5.2843,-6.037,0.0953,0.0327,0.1671,-0.2767
3891.0,-5.2843,-6.037,0.0953,0.0327,0.1671,-0.2767
3896.0,-5.2843,-6.037,0.0953,0.0327,0.1671,-0.2767
3901.0,-5.2843,-6.037,0.0953,-0.0742,0.2526,-0.4557
3905.0,-5.2843,-6.037,0.0953,-0.0742,0.2526,-0.4557
3910.0,-5.2843,-6.037,0.0953,-0.0742,0.2526,-0.4557
3915.0,-5.2986,-6.6949,-0.1416,-0.0742,0.2526,-0.4557
3920.0,-5.2986,-6.6949,-0.1416,-0.0742,0.2526,-0.4557
3925.0,-5.2986,-6.6949,-0.1416,-0.0742,0.2526,-0.4557
3930.0,-5.2986,-6.6949,-0.1416,-0.0742,0.2526,-0.4557
3935.0,-5.2986,-6.6949,-0.1416,0.183,-0.3259,-0.4098
3941.0,-5.586,-4.7262,-4.0988,0.183,-0.3259,-0.4098
3945.0,-5.586,-4.7262,-4.0988,0.183,-0.3259,-0.4098
3950.0,-5.586,-4.7262,-4.0988,0.183,-0.3259,-0.4098
3955.0,-5.586,-4.7262,-4.0988,0.183,-0.3259,-0.4098
3960.0,-5.586,-4.7262,-4.0988,0.183,-0.3259,-0.4098
3965.0,-5.586,-4.7262,-4.0988,0.4958,0.0168,-1.2461
3970.0,-5.6961,-5.7844,-0.3596,0.4958,0.0168,-1.2461
3975.0,-5.6961,-5.7844,-0.3596,0.4958,0.0168,-1.2461
3981.0,-5.6961,-5.7844,-0.3596,0.4958,0.0168,-1.2461
3985.0,-5.6961,-5.7844,-0.3596,0.4958,0.0168,-1.2461
3991.0,-5.6961,-5.7844,-0.3596,0.4958,0.0168,-1.2461
3996.0,-5.6961,-5.7844,-0.3596,0.4249,0.6368,-1.0665
4001.0,-5.8015,-4.7548,-1.9994,0.4249,0.6368,-1.0665
4005.0,-5.8015,-4.7548,-1.9994,0.4249,0.6368,-1.0665
4010.0,-5.8015,-4.7548,-1.9994,0.4249,0.6368,-1.0665
4016.0,-5.8015,-4.7548,-1.9994,0.4249,0.6368,-1.0665
4020.0,-5.8015,-4.7548,-1.9994,0.4249,0.6368,-1.0665
4026.0,-3.9864,-6.2944,0.3939,0.4249,0.6368,-1.0665
4030.0,-3.9864,-6.2944,0.3939,0.4249,0.6368,-1.0665
4035.0,-3.9864,-6.2944,0.3939,0.365,1.7926,-0.4697
4041.0,-3.9864,-6.2944,0.3939,0.365,1.7926,-0.4697
4046.0,-3.9864,-6.2944,0.3939,0.365,1.7926,-0.4697
4050.0,-4.2881,-8.2345,-1.8525,0.365,1.7926,-0.4697
4055.0,-4.2881,-8.2345,-1.8525,0.365,1.7926,-0.4697
4060.0,-4.2881,-8.2345,-1.8525,0.365,1.7926,-0.4697
4065.0,-4.2881,-8.2345,-1.8525,0.0492,2.2715,-0.3714
4070.0,-4.2881,-8.2345,-1.8525,0.0492,2.2715,-0.3714
4075.0,-4.2881,-8.2345,-1.8525,0.0492,2.2715,-0.3714
4080.0,-4.9107,-9.655,-3.3405,0.0492,2.2715,-0.3714
4086.0,-4.9107,-9.655,-3.3405,0.0492,2.2715,-0.3714
4090.0,-4.9107,-9.655,-3.3405,0.0492,2.2715,-0.3714
4095.0,-4.9107,-9.655,-3.3405,0.2636,1.8958,-1.1942
4101.0,-4.9107,-9.655,-3.3405,0.2636,1.8958,-1.1942
4105.0,-7.3388,-10.7466,-1.3075,0.2636,1.8958,-1.1942
4110.0,-7.3388,-10.7466,-1.3075,0.2636,1.8958,-1.1942
4115.0,-7.3388,-10.7466,-1.3075,0.2636,1.8958,-1.1942
4120.0,-7.3388,-10.7466,-1.3075,0.2636,1.8958,-1.1942
4125.0,-7.3388,-10.7466,-1.3075,0.7016,1.8836,-1.5772
4131.0,-7.3388,-10.7466,-1.3075,0.7016,1.8836,-1.5772
4135.0,-9.3599,-11.0184,-4.3215,0.7016,1.8836,-1.5772
4141.0,-9.3599,-11.0184,-4.3215,0.7016,1.8836,-1.5772
4145.0,-9.3599,-11.0184,-4.3215,0.7016,1.8836,-1.5772
4150.0,-9.3599,-11.0184,-4.3215,0.7016,1.8836,-1.5772
4155.0,-9.3599,-11.0184,-4.3215,0.8488,2.3112,-1.8588
4160.0,-9.3599,-11.0184,-4.3215,0.8488,2.3112,-1.8588
4165.0,-7.9758,-9.3643,-0.2933,0.8488,2.3112,-1.8588
4170.0,-7.9758,-9.3643,-0.2933,0.8488,2.3112,-1.8588
4175.0,-7.9758,-9.3643,-0.2933,0.8488,2.3112,-1.8588
4180.0,-7.9758,-9.3643,-0.2933,0.8488,2.3112,-1.8588
4185.0,-7.9758,-9.3643,-0.2933,0.8488,2.3112,-1.8588
4190.0,-7.9758,-9.3643,-0.2933,0.8818,2.9655,-1.4532
4195.0,-5.2747,-8.8685,-2.497,0.8818,2.9655,-1.4532
4200.0,-5.2747,-8.8685,-2.497,0.8818,2.9655,-1.4532
4205.0,-5.2747,-8.8685,-2.497,0.8818,2.9655,-1.4532
4210.0,-5.2747,-8.8685,-2.497,0.8818,2.9655,-1.4532
4215.0,-5.2747,-8.8685,-2.497,0.8818,2.9655,-1.4532
4220.0,-5.4806,-10.7514,-5.3309,0.7157,0.9881,-1.7605
4225.0,-5.4806,-10.7514,-5.3309,0.7157,0.9881,-1.7605
4230.0,-5.4806,-10.7514,-5.3309,0.7157,0.9881,-1.7605
4235.0,-5.4806,-10.7514,-5.3309,0.7157,0.9881,-1.7605
4240.0,-5.4806,-10.7514,-5.3309,0.7157,0.9881,-1.7605
4246.0,-7.813,-12.4198,-4.8144,0.7157,0.9881,-1.7605
4250.0,-7.813,-12.4198,-4.8144,0.6552,-0.8726,-1.9645
4256.0,-7.813,-12.4198,-4.8144,0.6552,-0.8726,-1.9645
4260.0,-7.813,-12.4198,-4.8144,0.6552,-0.8726,-1.9645
4266.0,-7.813,-12.4198,-4.8144,0.6552,-0.8726,-1.9645
4270.0,-7.813,-12.4198,-4.8144,0.6552,-0.8726,-1.9645
4275.0,-7.5639,-10.7896,-6.2835,0.6552,-0.8726,-1.9645
4280.0,-7.5639,-10.7896,-6.2835,1.0413,-1.1029,-1.0726
4285.0,-7.5639,-10.7896,-6.2835,1.0413,-1.1029,-1.0726
4291.0,-7.5639,-10.7896,-6.2835,1.0413,-1.1029,-1.0726
4296.0,-7.5639,-10.7896,-6.2835,1.0413,-1.1029,-1.0726
4300.0,-4.9682,-6.1276,-5.2977,1.0413,-1.1029,-1.0726
4305.0,-4.9682,-6.1276,-5.2977,1.0413,-1.1029,-1.0726
4312.0,-4.9682,-6.1276,-5.2977,0.7823,-1.453,-0.3206
4316.0,-4.9682,-6.1276,-5.2977,0.7823,-1.453,-0.3206
4320.0,-4.9682,-6.1276,-5.2977,0.7823,-1.453,-0.3206
4325.0,-4.9682,-6.1276,-5.2977,0.7823,-1.453,-0.3206
4330.0,-4.0343,-3.6107,-2.1131,0.7823,-1.453,-0.3206
4335.0,-4.0343,-3.6107,-2.1131,0.7823,-1.453,-0.3206
4341.0,-4.0343,-3.6107,-2.1131,0.7823,-1.453,-0.3206
4345.0,-4.0343,-3.6107,-2.1131,0.0614,-1.0058,0.3971
4350.0,-4.0343,-3.6107,-2.1131,0.0614,-1.0058,0.3971
4355.0,-4.3743,-3.0483,-0.1891,0.0614,-1.0058,0.3971
4360.0,-4.3743,-3.0483,-0.1891,0.0614,-1.0058,0.3971
4365.0,-4.3743,-3.0483,-0.1891,0.0614,-1.0058,0.3971
4370.0,-4.3743,-3.0483,-0.1891,0.0614,-1.0058,0.3971
4375.0,-4.3743,-3.0483,-0.1891,-0.3729,-0.456,1.4631
4380.0,-5.5333,-3.9873,-0.3075,-0.3729,-0.456,1.4631
4385.0,-5.5333,-3.9873,-0.3075,-0.3729,-0.456,1.4631
4390.0,-5.5333,-3.9873,-0.3075,-0.3729,-0.456,1.4631
4396.0,-5.5333,-3.9873,-0.3075,-0.3729,-0.456,1.4631
4401.0,-5.5333,-3.9873,-0.3075,-0.3729,-0.456,1.4631
4405.0,-5.5333,-3.9873,-0.3075,-0.5451,-0.5666,1.7557
4410.0,-5.5716,-5.9989,-2.8003,-0.5451,-0.5666,1.7557
4415.0,-5.5716,-5.9989,-2.8003,-0.5451,-0.5666,1.7557
4420.0,-5.5716,-5.9989,-2.8003,-0.5451,-0.5666,1.7557
4425.0,-5.5716,-5.9989,-2.8003,-0.5451,-0.5666,1.7557
4430.0,-5.5716,-5.9989,-2.8003,-0.5451,-0.5666,1.7557
4435.0,-4.6138,-7.4623,-4.312,-0.5451,-0.5666,1.7557
4441.0,-4.6138,-7.4623,-4.312,-0.6148,-0.8787,2.0623
4445.0,-4.6138,-7.4623,-4.312,-0.6148,-0.8787,2.0623
4450.0,-4.6138,-7.4623,-4.312,-0.6148,-0.8787,2.0623
4456.0,-4.6138,-7.4623,-4.312,-0.6148,-0.8787,2.0623
4460.0,-5.2076,-5.1552,-3.6012,-0.6148,-0.8787,2.0623
4465.0,-5.2076,-5.1552,-3.6012,-0.6148,-0.8787,2.0623
4470.0,-5.2076,-5.1552,-3.6012,-0.7809,-1.0107,2.3183
4475.0,-5.2076,-5.1552,-3.6012,-0.7809,-1.0107,2.3183
4480.0,-5.2076,-5.1552,-3.6012,-0.7809,-1.0107,2.3183
4486.0,-4.3312,-6.1753,-2.9187,-0.7809,-1.0107,2.3183
4490.0,-4.3312,-6.1753,-2.9187,-0.7809,-1.0107,2.3183
4495.0,-4.3312,-6.1753,-2.9187,-0.7809,-1.0107,2.3183
4501.0,-4.3312,-6.1753,-2.9187,-0.7424,-0.3644,1.8876
4505.0,-4.3312,-6.1753,-2.9187,-0.7424,-0.3644,1.8876
4510.0,-4.3312,-6.1753,-2.9187,-0.7424,-0.3644,1.8876
4515.0,-3.2824,-5.9655,-2.0752,-0.7424,-0.3644,1.8876
4520.0,-3.2824,-5.9655,-2.0752,-0.7424,-0.3644,1.8876
4525.0,-3.2824,-5.9655,-2.0752,-0.7424,-0.3644,1.8876
4530.0,-3.2824,-5.9655,-2.0752,-0.3906,0.1157,1.57
4535.0,-3.2824,-5.9655,-2.0752,-0.3906,0.1157,1.57
4541.0,-3.6176,-6.1896,-0.5682,-0.3906,0.1157,1.57
4545.0,-3.6176,-6.1896,-0.5682,-0.3906,0.1157,1.57
4551.0,-3.6176,-6.1896,-0.5682,-0.3906,0.1157,1.57
4555.0,-3.6176,-6.1896,-0.5682,-0.3906,0.1157,1.57
4560.0,-3.6176,-6.1896,-0.5682,-0.5372,0.3021,1.5504
4565.0,-3.6176,-6.1896,-0.5682,-0.5372,0.3021,1.5504
4571.0,-4.5132,-8.1344,-1.0136,-0.5372,0.3021,1.5504
4575.0,-4.5132,-8.1344,-1.0136,-0.5372,0.3021,1.5504
4580.0,-4.5132,-8.1344,-1.0136,-0.5372,0.3021,1.5504
4586.0,-4.5132,-8.1344,-1.0136,-0.5372,0.3021,1.5504
4591.0,-4.5132,-8.1344,-1.0136,-0.4382,0.5544,1.2163
4595.0,-4.4893,-9.7361,-3.2078,-0.4382,0.5544,1.2163
4600.0,-4.4893,-9.7361,-3.2078,-0.4382,0.5544,1.2163
4606.0,-4.4893,-9.7361,-3.2078,-0.4382,0.5544,1.2163
4611.0,-4.4893,-9.7361,-3.2078,-0.4382,0.5544,1.2163
4615.0,-4.4893,-9.7361,-3.2078,-0.4382,0.5544,1.2163
4620.0,-4.4893,-9.7361,-3.2078,0.1122,1.6582,-0.2131
4626.0,-1.2374,-8.0677,-10.1126,0.1122,1.6582,-0.2131
4630.0,-1.2374,-8.0677,-10.1126,0.1122,1.6582,-0.2131
4635.0,-1.2374,-8.0677,-10.1126,0.1122,1.6582,-0.2131
4640.0,-1.2374,-8.0677,-10.1126,0.1122,1.6582,-0.2131
4646.0,-1.2374,-8.0677,-10.1126,0.1122,1.6582,-0.2131
4650.0,-1.8073,-4.2924,-8.326,0.1122,1.6582,-0.2131
4655.0,-1.8073,-4.2924,-8.326,-0.029,-2.8219,-1.9651
4660.0,-1.8073,-4.2924,-8.326,-0.029,-2.8219,-1.9651
4666.0,-1.8073,-4.2924,-8.326,-0.029,-2.8219,-1.9651
4670.0,-1.8073,-4.2924,-8.326,-0.029,-2.8219,-1.9651
4675.0,-4.6138,-5.1075,4.2562,-0.029,-2.8219,-1.9651
4680.0,-4.6138,-5.1075,4.2562,-0.029,-2.8219,-1.9651
4685.0,-4.6138,-5.1075,4.2562,-0.3717,-2.8628,-2.5137
4691.0,-4.6138,-5.1075,4.2562,-0.3717,-2.8628,-2.5137
4696.0,-4.6138,-5.1075,4.2562,-0.3717,-2.8628,-2.5137
4700.0,-4.6138,-5.1075,4.2562,-0.3717,-2.8628,-2.5137
4705.0,-8.6511,-12.0098,0.4981,-0.3717,-2.8628,-2.5137
4710.0,-8.6511,-12.0098,0.4981,-0.3717,-2.8628,-2.5137
4715.0,-8.6511,-12.0098,0.4981,0.0804,-1.5904,-0.9309
4720.0,-8.6511,-12.0098,0.4981,0.0804,-1.5904,-0.9309
4725.0,-8.6511,-12.0098,0.4981,0.0804,-1.5904,-0.9309
4730.0,-10.6003,-13.8355,3.7918,0.0804,-1.5904,-0.9309
4735.0,-10.6003,-13.8355,3.7918,0.0804,-1.5904,-0.9309
4740.0,-10.6003,-13.8355,3.7918,-0.8457,0.4291,1.658
4745.0,-10.6003,-13.8355,3.7918,-0.8457,0.4291,1.658
4750.0,-10.6003,-13.8355,3.7918,-0.8457,0.4291,1.658
4756.0,-7.7794,-10.6275,0.8014,-0.8457,0.4291,1.658
4760.0,-7.7794,-10.6275,0.8014,-0.8457,0.4291,1.658
4765.0,-7.7794,-10.6275,0.8014,-0.8457,0.4291,1.658
4770.0,-7.7794,-10.6275,0.8014,-0.8457,0.4291,1.658
4775.0,-7.7794,-10.6275,0.8014,-0.6032,0.0534,1.1051
4780.0,-7.7794,-10.6275,0.8014,-0.6032,0.0534,1.1051
4785.0,-3.0525,-3.6155,-0.7435,-0.6032,0.0534,1.1051
4790.0,-3.0525,-3.6155,-0.7435,-0.6032,0.0534,1.1051
4795.0,-3.0525,-3.6155,-0.7435,-0.6032,0.0534,1.1051
4800.0,-3.0525,-3.6155,-0.7435,-0.6032,0.0534,1.1051
4805.0,-3.0525,-3.6155,-0.7435,-0.2928,0.6387,-0.0897
4810.0,-5.3944,-5.7844,1.8677,-0.2928,0.6387,-0.0897
4815.0,-5.3944,-5.7844,1.8677,-0.2928,0.6387,-0.0897
4820.0,-5.3944,-5.7844,1.8677,-0.2928,0.6387,-0.0897
4825.0,-5.3944,-5.7844,1.8677,-0.2928,0.6387,-0.0897
4830.0,-5.3944,-5.7844,1.8677,-0.2928,0.6387,-0.0897
4836.0,-16.2468,-17.9064,-7.364,-0.4706,-2.1665,1.0825
4840.0,-16.2468,-17.9064,-7.364,-0.4706,-2.1665,1.0825
4845.0,-16.2468,-17.9064,-7.364,-0.4706,-2.1665,1.0825
4850.0,-16.2468,-17.9064,-7.364,-0.4706,-2.1665,1.0825
4855.0,-16.2468,-17.9064,-7.364,-0.4706,-2.1665,1.0825
4860.0,-16.2468,-17.9064,-7.364,-0.4706,-2.1665,1.0825
4866.0,-14.9537,-15.4324,-2.6154,0.2264,-1.5024,-1.342
4870.0,-14.9537,-15.4324,-2.6154,0.2264,-1.5024,-1.342
4875.0,-14.9537,-15.4324,-2.6154,0.2264,-1.5024,-1.342
4880.0,-14.9537,-15.4324,-2.6154,0.2264,-1.5024,-1.342
4885.0,-14.9537,-15.4324,-2.6154,0.2264,-1.5024,-1.342
4890.0,-14.9537,-15.4324,-2.6154,0.2264,-1.5024,-1.342
4895.0,-5.4279,-6.9284,-0.6393,0.2264,-1.5024,-1.342
4900.0,-5.4279,-6.9284,-0.6393,0.9283,1.5226,-0.4245
4905.0,-5.4279,-6.9284,-0.6393,0.9283,1.5226,-0.4245
4911.0,-5.4279,-6.9284,-0.6393,0.9283,1.5226,-0.4245
4915.0,-5.4279,-6.9284,-0.6393,0.9283,1.5226,-0.4245
4920.0,-2.042,-2.5239,1.6544,0.9283,1.5226,-0.4245
4925.0,-2.042,-2.5239,1.6544,0.9283,1.5226,-0.4245
4931.0,-2.042,-2.5239,1.6544,1.0926,1.6319,0.4924
4935.0,-2.042,-2.5239,1.6544,1.0926,1.6319,0.4924
4940.0,-2.042,-2.5239,1.6544,1.0926,1.6319,0.4924
4946.0,-0.1837,-1.3322,-0.1891,1.0926,1.6319,0.4924
4950.0,-0.1837,-1.3322,-0.1891,1.0926,1.6319,0.4924
4955.0,-0.1837,-1.3322,-0.1891,1.0926,1.6319,0.4924
4960.0,-0.1837,-1.3322,-0.1891,0.409,0.773,0.1674
4965.0,-0.1837,-1.3322,-0.1891,0.409,0.773,0.1674
4971.0,-0.1837,-1.3322,-0.1891,0.409,0.773,0.1674
4976.0,-3.7086,-6.5423,0.1285,0.409,0.773,0.1674
4980.0,-3.7086,-6.5423,0.1285,0.409,0.773,0.1674
4985.0,-3.7086,-6.5423,0.1285,0.409,0.773,0.1674
4990.0,-3.7086,-6.5423,0.1285,-0.3393,-0.8977,-0.0262
4995.0,-3.7086,-6.5423,0.1285,-0.3393,-0.8977,-0.0262
5000.0,-6.994,-12.3769,1.318,-0.3393,-0.8977,-0.0262
5005.0,-6.994,-12.3769,1.318,-0.3393,-0.8977,-0.0262
5010.0,-6.994,-12.3769,1.318,-0.3393,-0.8977,-0.0262
5015.0,-6.994,-12.3769,1.318,-0.3393,-0.8977,-0.0262
5020.0,-6.994,-12.3769,1.318,-0.4871,-2.2422,0.0666
5025.0,-4.4126,-10.3891,2.1615,-0.4871,-2.2422,0.0666
5030.0,-4.4126,-10.3891,2.1615,-0.4871,-2.2422,0.0666
5035.0,-4.4126,-10.3891,2.1615,-0.4871,-2.2422,0.0666
5040.0,-4.4126,-10.3891,2.1615,-0.4871,-2.2422,0.0666
5045.0,-4.4126,-10.3891,2.1615,-0.4871,-2.2422,0.0666
5050.0,-4.4126,-10.3891,2.1615,-0.4871,-2.2422,0.0666
5055.0,-2.0707,-5.9369,0.9389,-0.5738,-2.3454,0.7355
5061.0,-2.0707,-5.9369,0.9389,-0.5738,-2.3454,0.7355
5065.0,-2.0707,-5.9369,0.9389,-0.5738,-2.3454,0.7355
5070.0,-2.0707,-5.9369,0.9389,-0.5738,-2.3454,0.7355
5076.0,-2.0707,-5.9369,0.9389,-0.5738,-2.3454,0.7355
5080.0,-3.2488,-5.5175,0.9341,-0.5738,-2.3454,0.7355
5085.0,-3.2488,-5.5175,0.9341,-0.9434,-2.0596,1.4686
5090.0,-3.2488,-5.5175,0.9341,-0.9434,-2.0596,1.4686
5096.0,-3.2488,-5.5175,0.9341,-0.9434,-2.0596,1.4686
5101.0,-3.2488,-5.5175,0.9341,-0.9434,-2.0596,1.4686
5106.0,-7.813,-8.4824,2.1283,-0.9434,-2.0596,1.4686
5110.0,-7.813,-8.4824,2.1283,-0.9434,-2.0596,1.4686
5115.0,-7.813,-8.4824,2.1283,-0.8774,1.368,2.0135
5120.0,-7.813,-8.4824,2.1283,-0.8774,1.368,2.0135
5125.0,-7.813,-8.4824,2.1283,-0.8774,1.368,2.0135
5131.0,-7.813,-8.4824,2.1283,-0.8774,1.368,2.0135
5136.0,-11.3426,-8.5205,-11.1268,-0.8774,1.368,2.0135
5141.0,-11.3426,-8.5205,-11.1268,-0.8774,1.368,2.0135
5145.0,-11.3426,-8.5205,-11.1268,-0.4089,2.5629,1.2493
5151.0,-11.3426,-8.5205,-11.1268,-0.4089,2.5629,1.2493
5155.0,-11.3426,-8.5205,-11.1268,-0.4089,2.5629,1.2493
5160.0,-11.3426,-8.5205,-11.1268,-0.4089,2.5629,1.2493
5165.0,-5.4136,-5.9131,-2.5586,-0.4089,2.5629,1.2493
5171.0,-5.4136,-5.9131,-2.5586,-0.4089,2.5629,1.2493
5175.0,-5.4136,-5.9131,-2.5586,0.1671,0.2843,-0.8075
5180.0,-5.4136,-5.9131,-2.5586,0.1671,0.2843,-0.8075
5185.0,-5.4136,-5.9131,-2.5586,0.1671,0.2843,-0.8075
5190.0,-4.0534,-4.0111,0.4792,0.1671,0.2843,-0.8075
5195.0,-4.0534,-4.0111,0.4792,0.1671,0.2843,-0.8075
5200.0,-4.0534,-4.0111,0.4792,0.1671,0.2843,-0.8075
5205.0,-4.0534,-4.0111,0.4792,0.3015,0.3754,-1.8228
5210.0,-4.0534,-4.0111,0.4792,0.3015,0.3754,-1.8228
5215.0,-5.3417,-3.5488,-1.4307,0.3015,0.3754,-1.8228
5220.0,-5.3417,-3.5488,-1.4307,0.3015,0.3754,-1.8228
5225.0,-5.3417,-3.5488,-1.4307,0.3015,0.3754,-1.8228
5230.0,-5.3417,-3.5488,-1.4307,0.3015,0.3754,-1.8228
5235.0,-5.3417,-3.5488,-1.4307,-0.0436,-1.0913,-1.2858
5240.0,-5.3417,-3.5488,-1.4307,-0.0436,-1.0913,-1.2858
5245.0,-8.3494,-5.608,0.2233,-0.0436,-1.0913,-1.2858
5250.0,-8.3494,-5.608,0.2233,-0.0436,-1.0913,-1.2858
5256.0,-8.3494,-5.608,0.2233,-0.0436,-1.0913,-1.2858
5260.0,-8.3494,-5.608,0.2233,-0.0436,-1.0913,-1.2858
5265.0,-8.3494,-5.608,0.2233,-0.0436,-1.0913,-1.2858
5271.0,-8.3494,-5.608,0.2233,0.2753,-0.0107,-0.6884
5275.0,-7.1999,-6.9761,-0.5634,0.2753,-0.0107,-0.6884
5281.0,-7.1999,-6.9761,-0.5634,0.2753,-0.0107,-0.6884
5285.0,-7.1999,-6.9761,-0.5634,0.2753,-0.0107,-0.6884
5290.0,-7.1999,-6.9761,-0.5634,0.2753,-0.0107,-0.6884
5295.0,-7.1999,-6.9761,-0.5634,0.2753,-0.0107,-0.6884
5300.0,-7.1999,-6.9761,-0.5634,0.3583,1.7462,0.0104
5305.0,-3.2632,-6.3278,-1.4781,0.3583,1.7462,0.0104
5310.0,-3.2632,-6.3278,-1.4781,0.3583,1.7462,0.0104
5315.0,-3.2632,-6.3278,-1.4781,0.3583,1.7462,0.0104
5320.0,-3.2632,-6.3278,-1.4781,0.3583,1.7462,0.0104
5325.0,-3.2632,-6.3278,-1.4781,0.3583,1.7462,0.0104
5330.0,-3.3734,-7.3717,-1.7719,0.0859,2.6954,-0.1588
5336.0,-3.3734,-7.3717,-1.7719,0.0859,2.6954,-0.1588
5341.0,-3.3734,-7.3717,-1.7719,0.0859,2.6954,-0.1588
5345.0,-3.3734,-7.3717,-1.7719,0.0859,2.6954,-0.1588
5350.0,-3.3734,-7.3717,-1.7719,0.0859,2.6954,-0.1588
5355.0,-5.6626,-10.842,-2.7908,0.0859,2.6954,-0.1588
5360.0,-5.6626,-10.842,-2.7908,0.45,3.1066,-1.1172
5366.0,-5.6626,-10.842,-2.7908,0.45,3.1066,-1.1172
5371.0,-5.6626,-10.842,-2.7908,0.45,3.1066,-1.1172
5375.0,-5.6626,-10.842,-2.7908,0.45,3.1066,-1.1172
5380.0,-5.6626,-10.842,-2.7908,0.45,3.1066,-1.1172
5386.0,-5.6626,-10.842,-2.7908,0.45,3.1066,-1.1172
5390.0,-7.8656,-12.906,-4.6343,0.9252,2.9758,-1.9346
5395.0,-7.8656,-12.906,-4.6343,0.9252,2.9758,-1.9346
5400.0,-7.8656,-12.906,-4.6343,0.9252,2.9758,-1.9346
5405.0,-7.8656,-12.906,-4.6343,0.9252,2.9758,-1.9346
5410.0,-7.8656,-12.906,-4.6343,0.9252,2.9758,-1.9346
5416.0,-8.608,-12.1338,-1.952,0.9252,2.9758,-1.9346
5420.0,-8.608,-12.1338,-1.952,1.1237,2.6979,-2.2577
5426.0,-8.608,-12.1338,-1.952,1.1237,2.6979,-2.2577
5430.0,-8.608,-12.1338,-1.952,1.1237,2.6979,-2.2577
5436.0,-8.608,-12.1338,-1.952,1.1237,2.6979,-2.2577
5441.0,-5.8638,-10.3796,-2.5538,1.1237,2.6979,-2.2577
5445.0,-5.8638,-10.3796,-2.5538,1.1237,2.6979,-2.2577
5451.0,-5.8638,-10.3796,-2.5538,0.8232,1.9789,-2.3982
5456.0,-5.8638,-10.3796,-2.5538,0.8232,1.9789,-2.3982
5460.0,-5.8638,-10.3796,-2.5538,0.8232,1.9789,-2.3982
5466.0,-5.8638,-10.3796,-2.5538,0.8232,1.9789,-2.3982
5470.0,-5.677,-10.9469,-5.3072,0.8232,1.9789,-2.3982
5475.0,-5.677,-10.9469,-5.3072,0.8232,1.9789,-2.3982
5481.0,-5.677,-10.9469,-5.3072,0.4597,-0.85,-3.0586
5485.0,-5.677,-10.9469,-5.3072,0.4597,-0.85,-3.0586
5490.0,-5.677,-10.9469,-5.3072,0.4597,-0.85,-3.0586
5495.0,-5.677,-10.9469,-5.3072,0.4597,-0.85,-3.0586
5500.0,-10.3848,-11.0899,-2.4164,0.4597,-0.85,-3.0586
5505.0,-10.3848,-11.0899,-2.4164,0.4597,-0.85,-3.0586
5510.0,-10.3848,-11.0899,-2.4164,0.9893,-1.2844,-2.4617
5515.0,-10.3848,-11.0899,-2.4164,0.9893,-1.2844,-2.4617
5521.0,-10.3848,-11.0899,-2.4164,0.9893,-1.2844,-2.4617
5525.0,-10.7823,-8.0439,-3.8855,0.9893,-1.2844,-2.4617
5530.0,-10.7823,-8.0439,-3.8855,0.9893,-1.2844,-2.4617
5535.0,-10.7823,-8.0439,-3.8855,0.9893,-1.2844,-2.4617
5540.0,-10.7823,-8.0439,-3.8855,1.1879,0.1218,-0.5259
5546.0,-10.7823,-8.0439,-3.8855,1.1879,0.1218,-0.5259
5550.0,-8.9672,-4.6499,-5.3451,1.1879,0.1218,-0.5259
5555.0,-8.9672,-4.6499,-5.3451,1.1879,0.1218,-0.5259
5560.0,-8.9672,-4.6499,-5.3451,1.1879,0.1218,-0.5259
5565.0,-8.9672,-4.6499,-5.3451,1.1879,0.1218,-0.5259
5571.0,-8.9672,-4.6499,-5.3451,1.1115,0.0968,0.2829
5576.0,-8.9672,-4.6499,-5.3451,1.1115,0.0968,0.2829
5581.0,-8.9672,-4.6499,-5.3451,1.1115,0.0968,0.2829
5585.0,-6.1128,-2.7193,-3.9756,1.1115,0.0968,0.2829
5591.0,-6.1128,-2.7193,-3.9756,1.1115,0.0968,0.2829
5595.0,-6.1128,-2.7193,-3.9756,1.1115,0.0968,0.2829
5601.0,-6.1128,-2.7193,-3.9756,1.1115,0.0968,0.2829
5605.0,-6.1128,-2.7193,-3.9756,0.0529,0.4646,1.2847
5610.0,-2.3245,-2.5573,-1.0326,0.0529,0.4646,1.2847
5615.0,-2.3245,-2.5573,-1.0326,0.0529,0.4646,1.2847
5620.0,-2.3245,-2.5573,-1.0326,0.0529,0.4646,1.2847
5625.0,-2.3245,-2.5573,-1.0326,0.0529,0.4646,1.2847
5631.0,-2.3245,-2.5573,-1.0326,0.0529,0.4646,1.2847
5635.0,-2.3245,-2.5573,-1.0326,-0.5629,0.1713,1.6384
5640.0,-2.631,-4.321,-2.0325,-0.5629,0.1713,1.6384
5645.0,-2.631,-4.321,-2.0325,-0.5629,0.1713,1.6384
5650.0,-2.631,-4.321,-2.0325,-0.5629,0.1713,1.6384
5655.0,-2.631,-4.321,-2.0325,-0.5629,0.1713,1.6384
5660.0,-2.631,-4.321,-2.0325,-0.5629,0.1713,1.6384
5665.0,-3.6847,-5.179,-1.6676,-0.5806,-0.7724,1.9426
5670.0,-3.6847,-5.179,-1.6676,-0.5806,-0.7724,1.9426
5675.0,-3.6847,-5.179,-1.6676,-0.5806,-0.7724,1.9426
5680.0,-3.6847,-5.179,-1.6676,-0.5806,-0.7724,1.9426
5685.0,-3.6847,-5.179,-1.6676,-0.5806,-0.7724,1.9426
5690.0,-3.6847,-5.179,-1.6676,-0.5806,-0.7724,1.9426
5695.0,-3.4404,-5.5079,-1.7056,-0.8329,-1.1658,2.3678
5701.0,-3.4404,-5.5079,-1.7056,-0.8329,-1.1658,2.3678
5705.0,-3.4404,-5.5079,-1.7056,-0.8329,-1.1658,2.3678
5710.0,-3.4404,-5.5079,-1.7056,-0.8329,-1.1658,2.3678
5715.0,-3.4404,-5.5079,-1.7056,-0.8329,-1.1658,2.3678
5720.0,-3.1004,-5.3506,-1.9188,-0.8329,-1.1658,2.3678
5725.0,-3.1004,-5.3506,-1.9188,-1.1389,-1.0852,2.6109
5730.0,-3.1004,-5.3506,-1.9188,-1.1389,-1.0852,2.6109
5735.0,-3.1004,-5.3506,-1.9188,-1.1389,-1.0852,2.6109
5740.0,-3.1004,-5.3506,-1.9188,-1.1389,-1.0852,2.6109
5745.0,-3.1004,-5.3506,-1.9188,-1.1389,-1.0852,2.6109
5751.0,-4.1157,-7.9104,-1.5255,-1.1389,-1.0852,2.6109
5755.0,-4.1157,-7.9104,-1.5255,-1.1389,-1.0852,2.6109
5761.0,-4.1157,-7.9104,-1.5255,-1.1389,-1.0852,2.6109
5766.0,-4.1157,-7.9104,-1.5255,-1.2,-0.9068,2.7447
5770.0,-4.1157,-7.9104,-1.5255,-1.2,-0.9068,2.7447
5775.0,-4.5611,-9.064,0.4649,-1.2,-0.9068,2.7447
5780.0,-4.5611,-9.064,0.4649,-1.2,-0.9068,2.7447
5785.0,-4.5611,-9.064,0.4649,-1.2,-0.9068,2.7447
5790.0,-4.5611,-9.064,0.4649,-1.2,-0.9068,2.7447
5795.0,-4.5611,-9.064,0.4649,-1.2,-0.9068,2.7447
5800.0,-2.9663,-7.224,-4.5916,-0.6954,0.6246,2.8137
5805.0,-2.9663,-7.224,-4.5916,-0.6954,0.6246,2.8137
5810.0,-2.9663,-7.224,-4.5916,-0.6954,0.6246,2.8137
5815.0,-2.9663,-7.224,-4.5916,-0.6954,0.6246,2.8137
5820.0,-2.9663,-7.224,-4.5916,-0.6954,0.6246,2.8137
5825.0,-2.9663,-7.224,-4.5916,-0.6954,0.6246,2.8137
5830.0,-5.8494,-7.3813,-12.4679,0.1354,1.2623,1.3165
5835.0,-5.8494,-7.3813,-12.4679,0.1354,1.2623,1.3165
5840.0,-5.8494,-7.3813,-12.4679,0.1354,1.2623,1.3165
5846.0,-5.8494,-7.3813,-12.4679,0.1354,1.2623,1.3165
5851.0,-5.8494,-7.3813,-12.4679,0.1354,1.2623,1.3165
5855.0,-3.2919,-6.1276,-8.6956,0.1354,1.2623,1.3165
5860.0,-3.2919,-6.1276,-8.6956,0.8721,-0.0406,-1.1936
5865.0,-3.2919,-6.1276,-8.6956,0.8721,-0.0406,-1.1936
5871.0,-3.2919,-6.1276,-8.6956,0.8721,-0.0406,-1.1936
5875.0,-3.2919,-6.1276,-8.6956,0.8721,-0.0406,-1.1936
5881.0,-3.2919,-6.1276,-8.6956,0.8721,-0.0406,-1.1936
5886.0,0.1515,-4.2829,-2.6534,0.8721,-0.0406,-1.1936
5890.0,0.1515,-4.2829,-2.6534,0.0877,-2.0199,-2.2253
5895.0,0.1515,-4.2829,-2.6534,0.0877,-2.0199,-2.2253
5900.0,0.1515,-4.2829,-2.6534,0.0877,-2.0199,-2.2253
5905.0,0.1515,-4.2829,-2.6534,0.0877,-2.0199,-2.2253
5910.0,-1.6492,-6.2086,4.877,0.0877,-2.0199,-2.2253
5915.0,-1.6492,-6.2086,4.877,0.0877,-2.0199,-2.2253
5921.0,-1.6492,-6.2086,4.877,0.0877,-2.0199,-2.2253
5925.0,-1.6492,-6.2086,4.877,-0.3869,-2.9392,-1.849
5931.0,-1.6492,-6.2086,4.877,-0.3869,-2.9392,-1.849
5936.0,-6.7689,-11.8859,4.5405,-0.3869,-2.9392,-1.849
5941.0,-6.7689,-11.8859,4.5405,-0.3869,-2.9392,-1.849
5945.0,-6.7689,-11.8859,4.5405,-0.3869,-2.9392,-1.849
5950.0,-6.7689,-11.8859,4.5405,-0.3869,-2.9392,-1.849
5955.0,-6.7689,-11.8859,4.5405,-0.6862,-1.2648,-0.3707
5960.0,-6.7689,-11.8859,4.5405,-0.6862,-1.2648,-0.3707
5965.0,-12.9087,-20.9381,-3.3263,-0.6862,-1.2648,-0.3707
5970.0,-12.9087,-20.9381,-3.3263,-0.6862,-1.2648,-0.3707
5975.0,-12.9087,-20.9381,-3.3263,-0.6862,-1.2648,-0.3707
5980.0,-12.9087,-20.9381,-3.3263,-0.6862,-1.2648,-0.3707
5985.0,-12.9087,-20.9381,-3.3263,-1.2159,0.4585,1.6763
5990.0,-7.7555,-8.9877,4.8533,-1.2159,0.4585,1.6763
5995.0,-7.7555,-8.9877,4.8533,-1.2159,0.4585,1.6763
6000.0,-7.7555,-8.9877,4.8533,-1.2159,0.4585,1.6763
6005.0,-7.7555,-8.9877,4.8533,-1.2159,0.4585,1.6763
6010.0,-7.7555,-8.9877,4.8533,-1.2159,0.4585,1.6763
6016.0,-6.9557,-6.2039,4.5974,-0.8445,2.2752,0.5621
6020.0,-6.9557,-6.2039,4.5974,-0.8445,2.2752,0.5621
6025.0,-6.9557,-6.2039,4.5974,-0.8445,2.2752,0.5621
6030.0,-6.9557,-6.2039,4.5974,-0.8445,2.2752,0.5621
6035.0,-6.9557,-6.2039,4.5974,-0.8445,2.2752,0.5621
6041.0,-6.9557,-6.2039,4.5974,-0.8445,2.2752,0.5621
6046.0,-19.355,-17.9541,-16.9558,-0.5207,2.0504,0.4228
6050.0,-19.355,-17.9541,-16.9558,-0.5207,2.0504,0.4228
6055.0,-19.355,-17.9541,-16.9558,-0.5207,2.0504,0.4228
6060.0,-19.355,-17.9541,-16.9558,-0.5207,2.0504,0.4228
6066.0,-19.355,-17.9541,-16.9558,-0.5207,2.0504,0.4228
6070.0,-9.1444,-9.1069,3.1236,-0.5207,2.0504,0.4228
6075.0,-9.1444,-9.1069,3.1236,1.307,-4.1738,-2.1618
6080.0,-9.1444,-9.1069,3.1236,1.307,-4.1738,-2.1618
6085.0,-9.1444,-9.1069,3.1236,1.307,-4.1738,-2.1618
6090.0,-9.1444,-9.1069,3.1236,1.307,-4.1738,-2.1618
6095.0,-1.769,-3.7347,-3.8381,1.307,-4.1738,-2.1618
6101.0,-1.769,-3.7347,-3.8381,1.307,-4.1738,-2.1618
6105.0,-1.769,-3.7347,-3.8381,1.241,-1.6619,-1.4782
6110.0,-1.769,-3.7347,-3.8381,1.241,-1.6619,-1.4782
6115.0,-1.769,-3.7347,-3.8381,1.241,-1.6619,-1.4782
6120.0,-1.769,-3.7347,-3.8381,1.241,-1.6619,-1.4782
6125.0,-2.3293,-2.9005,4.133,1.241,-1.6619,-1.4782
6130.0,-2.3293,-2.9005,4.133,1.241,-1.6619,-1.4782
6135.0,-2.3293,-2.9005,4.133,1.241,-1.6619,-1.4782
6140.0,-2.3293,-2.9005,4.133,0.4738,-0.478,0.2957
6145.0,-2.3293,-2.9005,4.133,0.4738,-0.478,0.2957
6150.0,-2.3293,-2.9005,4.133,0.4738,-0.478,0.2957
6155.0,-5.4758,-7.5529,4.0003,0.4738,-0.478,0.2957
6160.0,-5.4758,-7.5529,4.0003,0.4738,-0.478,0.2957
6165.0,-5.4758,-7.5529,4.0003,0.4738,-0.478,0.2957
6170.0,-5.4758,-7.5529,4.0003,-0.0173,2.1994,1.0416
6175.0,-5.4758,-7.5529,4.0003,-0.0173,2.1994,1.0416
6180.0,-7.5352,-11.5761,1.9862,-0.0173,2.1994,1.0416
6185.0,-7.5352,-11.5761,1.9862,-0.0173,2.1994,1.0416
6190.0,-7.5352,-11.5761,1.9862,-0.0173,2.1994,1.0416
6195.0,-7.5352,-11.5761,1.9862,-0.0173,2.1994,1.0416
6200.0,-7.5352,-11.5761,1.9862,-0.0173,2.1994,1.0416
6205.0,-7.5352,-11.5761,1.9862,-0.0418,1.4352,1.9884
6210.0,-5.562,-9.7742,-0.9615,-0.0418,1.4352,1.9884
6215.0,-5.562,-9.7742,-0.9615,-0.0418,1.4352,1.9884
6220.0,-5.562,-9.7742,-0.9615,-0.0418,1.4352,1.9884
6225.0,-5.562,-9.7742,-0.9615,-0.0418,1.4352,1.9884
6230.0,-5.562,-9.7742,-0.9615,-0.627,-0.9808,1.7679
6235.0,-5.562,-9.7742,-0.9615,-0.627,-0.9808,1.7679
6241.0,-2.9998,-6.9046,-0.4686,-0.627,-0.9808,1.7679
6246.0,-2.9998,-6.9046,-0.4686,-0.627,-0.9808,1.7679
6250.0,-2.9998,-6.9046,-0.4686,-0.627,-0.9808,1.7679
6255.0,-2.9998,-6.9046,-0.4686,-0.627,-0.9808,1.7679
6260.0,-2.9998,-6.9046,-0.4686,-0.627,-0.9808,1.7679
6265.0,-2.9998,-6.9046,-0.4686,-0.8402,-2.5299,1.4888
6270.0,-2.5352,-6.1324,0.3086,-0.8402,-2.5299,1.4888
6275.0,-2.5352,-6.1324,0.3086,-0.8402,-2.5299,1.4888
6280.0,-2.5352,-6.1324,0.3086,-0.8402,-2.5299,1.4888
6285.0,-2.5352,-6.1324,0.3086,-0.8402,-2.5299,1.4888
6290.0,-5.6818,-6.037,-7.7526,-0.8402,-2.5299,1.4888
6295.0,-5.6818,-6.037,-7.7526,-0.1975,1.1115,-0.0635
6301.0,-5.6818,-6.037,-7.7526,-0.1975,1.1115,-0.0635
6305.0,-5.6818,-6.037,-7.7526,-0.1975,1.1115,-0.0635
6310.0,-5.6818,-6.037,-7.7526,-0.1975,1.1115,-0.0635
6316.0,-5.6818,-6.037,-7.7526,-0.1975,1.1115,-0.0635
6320.0,-4.4222,-7.4099,-0.8525,-0.1975,1.1115,-0.0635
6325.0,-4.4222,-7.4099,-0.8525,-0.2122,-0.2728,-0.6725
6330.0,-4.4222,-7.4099,-0.8525,-0.2122,-0.2728,-0.6725
6335.0,-4.4222,-7.4099,-0.8525,-0.2122,-0.2728,-0.6725
6340.0,-4.4222,-7.4099,-0.8525,-0.2122,-0.2728,-0.6725
6345.0,-5.2555,-6.2611,1.2232,-0.2122,-0.2728,-0.6725
6350.0,-5.2555,-6.2611,1.2232,-0.2122,-0.2728,-0.6725
6355.0,-5.2555,-6.2611,1.2232,0.026,-0.2282,-1.0287
6361.0,-5.2555,-6.2611,1.2232,0.026,-0.2282,-1.0287
6365.0,-5.2555,-6.2611,1.2232,0.026,-0.2282,-1.0287
6370.0,-5.222,-3.2437,-1.1937,0.026,-0.2282,-1.0287
6375.0,-5.222,-3.2437,-1.1937,0.026,-0.2282,-1.0287
6381.0,-5.222,-3.2437,-1.1937,0.026,-0.2282,-1.0287
6385.0,-5.222,-3.2437,-1.1937,0.026,-0.2282,-1.0287
6390.0,-5.222,-3.2437,-1.1937,0.1806,-0.7303,-0.824
6395.0,-5.222,-3.2437,-1.1937,0.1806,-0.7303,-0.824
6400.0,-6.1463,-2.6812,-0.5682,0.1806,-0.7303,-0.824
6406.0,-6.1463,-2.6812,-0.5682,0.1806,-0.7303,-0.824
6410.0,-6.1463,-2.6812,-0.5682,0.1806,-0.7303,-0.824
6415.0,-6.1463,-2.6812,-0.5682,0.1806,-0.7303,-0.824
6420.0,-6.1463,-2.6812,-0.5682,0.2557,0.3357,-1.4123
6426.0,-9.3312,-4.24,-3.914,0.2557,0.3357,-1.4123
6430.0,-9.3312,-4.24,-3.914,0.2557,0.3357,-1.4123
6435.0,-9.3312,-4.24,-3.914,0.2557,0.3357,-1.4123
6440.0,-9.3312,-4.24,-3.914,0.2557,0.3357,-1.4123
6445.0,-9.3312,-4.24,-3.914,0.2557,0.3357,-1.4123
6451.0,-8.6128,-6.733,1.4459,0.1256,0.6387,-0.8326
6455.0,-8.6128,-6.733,1.4459,0.1256,0.6387,-0.8326
6460.0,-8.6128,-6.733,1.4459,0.1256,0.6387,-0.8326
6465.0,-8.6128,-6.733,1.4459,0.1256,0.6387,-0.8326
6470.0,-8.6128,-6.733,1.4459,0.1256,0.6387,-0.8326
6476.0,-8.6128,-6.733,1.4459,0.1256,0.6387,-0.8326
6480.0,-5.8638,-7.5767,-3.8144,0.4646,2.1493,-0.43
6485.0,-5.8638,-7.5767,-3.8144,0.4646,2.1493,-0.43
6490.0,-5.8638,-7.5767,-3.8144,0.4646,2.1493,-0.43
6495.0,-5.8638,-7.5767,-3.8144,0.4646,2.1493,-0.43
6500.0,-5.8638,-7.5767,-3.8144,0.4646,2.1493,-0.43
6505.0,-6.0745,-10.0745,-2.3453,0.4646,2.1493,-0.43
6510.0,-6.0745,-10.0745,-2.3453,0.4646,2.1493,-0.43
6515.0,-6.0745,-10.0745,-2.3453,0.7468,3.1157,-1.0885
6520.0,-6.0745,-10.0745,-2.3453,0.7468,3.1157,-1.0885
6525.0,-6.0745,-10.0745,-2.3453,0.7468,3.1157,-1.0885
6530.0,-5.7488,-11.0231,-2.6628,0.7468,3.1157,-1.0885
6536.0,-5.7488,-11.0231,-2.6628,0.7468,3.1157,-1.0885
6540.0,-5.7488,-11.0231,-2.6628,1.2294,4.1451,-1.9804
6545.0,-5.7488,-11.0231,-2.6628,1.2294,4.1451,-1.9804
6551.0,-5.7488,-11.0231,-2.6628,1.2294,4.1451,-1.9804
6556.0,-5.7488,-11.0231,-2.6628,1.2294,4.1451,-1.9804
6560.0,-6.0457,-11.8573,-4.2646,1.2294,4.1451,-1.9804
6565.0,-6.0457,-11.8573,-4.2646,1.2294,4.1451,-1.9804
6570.0,-6.0457,-11.8573,-4.2646,1.2294,4.1451,-1.9804
6576.0,-6.0457,-11.8573,-4.2646,1.4335,3.3961,-2.2394
6580.0,-6.0457,-11.8573,-4.2646,1.4335,3.3961,-2.2394
6585.0,-5.5956,-11.1375,-3.3121,1.4335,3.3961,-2.2394
6591.0,-5.5956,-11.1375,-3.3121,1.4335,3.3961,-2.2394
6595.0,-5.5956,-11.1375,-3.3121,1.4335,3.3961,-2.2394
6600.0,-5.5956,-11.1375,-3.3121,1.4335,3.3961,-2.2394
6606.0,-5.5956,-11.1375,-3.3121,0.2771,1.8482,-3.0195
6610.0,-5.5956,-11.1375,-3.3121,0.2771,1.8482,-3.0195
6615.0,-7.0228,-10.6799,-5.1793,0.2771,1.8482,-3.0195
6621.0,-7.0228,-10.6799,-5.1793,0.2771,1.8482,-3.0195
6625.0,-7.0228,-10.6799,-5.1793,0.2771,1.8482,-3.0195
6630.0,-7.0228,-10.6799,-5.1793,0.2771,1.8482,-3.0195
6635.0,-7.0228,-10.6799,-5.1793,0.0444,-2.2392,-3.6377
6640.0,-12.3101,-14.6268,-3.222,0.0444,-2.2392,-3.6377
6645.0,-12.3101,-14.6268,-3.222,0.0444,-2.2392,-3.6377
6651.0,-12.3101,-14.6268,-3.222,0.0444,-2.2392,-3.6377
6655.0,-12.3101,-14.6268,-3.222,0.0444,-2.2392,-3.6377
6660.0,-12.3101,-14.6268,-3.222,0.0444,-2.2392,-3.6377
6665.0,-12.3101,-14.6268,-3.222,1.4561,-2.15,-2.342
6671.0,-11.6443,-11.5093,-2.5491,1.4561,-2.15,-2.342
6675.0,-11.6443,-11.5093,-2.5491,1.4561,-2.15,-2.342
6680.0,-11.6443,-11.5093,-2.5491,1.4561,-2.15,-2.342
6685.0,-11.6443,-11.5093,-2.5491,1.4561,-2.15,-2.342
6690.0,-11.6443,-11.5093,-2.5491,1.4561,-2.15,-2.342
6695.0,-8.2919,-5.9941,-0.99,1.6748,-0.3925,0.5071
6700.0,-8.2919,-5.9941,-0.99,1.6748,-0.3925,0.5071
6705.0,-8.2919,-5.9941,-0.99,1.6748,-0.3925,0.5071
6710.0,-8.2919,-5.9941,-0.99,1.6748,-0.3925,0.5071
6715.0,-8.2919,-5.9941,-0.99,1.6748,-0.3925,0.5071
6720.0,-5.3226,-3.1817,-1.9378,1.6748,-0.3925,0.5071
6725.0,-5.3226,-3.1817,-1.9378,1.6748,-0.3925,0.5071
6730.0,-5.3226,-3.1817,-1.9378,1.5679,0.2483,1.2254
6735.0,-5.3226,-3.1817,-1.9378,1.5679,0.2483,1.2254
6740.0,-5.3226,-3.1817,-1.9378,1.5679,0.2483,1.2254
6745.0,-5.3226,-3.1817,-1.9378,1.5679,0.2483,1.2254
6750.0,-3.2919,-0.4599,-1.952,1.5679,0.2483,1.2254
6755.0,-3.2919,-0.4599,-1.952,1.5679,0.2483,1.2254
6760.0,-3.2919,-0.4599,-1.952,1.5679,0.2483,1.2254
6765.0,-3.2919,-0.4599,-1.952,0.7108,0.8824,1.6909
6770.0,-3.2919,-0.4599,-1.952,0.7108,0.8824,1.6909
6775.0,-1.2901,0.4267,-2.8145,0.7108,0.8824,1.6909
6780.0,-1.2901,0.4267,-2.8145,0.7108,0.8824,1.6909
6785.0,-1.2901,0.4267,-2.8145,0.7108,0.8824,1.6909
6790.0,-1.2901,0.4267,-2.8145,0.7108,0.8824,1.6909
6795.0,-1.2901,0.4267,-2.8145,-0.9501,0.3222,2.5822
6800.0,-1.2901,0.4267,-2.8145,-0.9501,0.3222,2.5822
6805.0,-1.9079,-1.561,-3.1462,-0.9501,0.3222,2.5822
6810.0,-1.9079,-1.561,-3.1462,-0.9501,0.3222,2.5822
6815.0,-1.9079,-1.561,-3.1462,-0.9501,0.3222,2.5822
6820.0,-1.9079,-1.561,-3.1462,-0.9501,0.3222,2.5822
6825.0,-1.9079,-1.561,-3.1462,-1.6765,-0.7395,2.5626
6831.0,-2.9902,-4.5593,-3.2505,-1.6765,-0.7395,2.5626
6835.0,-2.9902,-4.5593,-3.2505,-1.6765,-0.7395,2.5626
6840.0,-2.9902,-4.5593,-3.2505,-1.6765,-0.7395,2.5626
6845.0,-2.9902,-4.5593,-3.2505,-1.6765,-0.7395,2.5626
6850.0,-2.9902,-4.5593,-3.2505,-1.6765,-0.7395,2.5626
6855.0,-2.9902,-4.5593,-3.2505,-2.1713,-0.7486,2.3788
6860.0,-3.5937,-11.7334,-3.6912,-2.1713,-0.7486,2.3788
6865.0,-3.5937,-11.7334,-3.6912,-2.1713,-0.7486,2.3788
6871.0,-3.5937,-11.7334,-3.6912,-2.1713,-0.7486,2.3788
6876.0,-3.5937,-11.7334,-3.6912,-2.1713,-0.7486,2.3788
6881.0,-3.5937,-11.7334,-3.6912,-2.1713,-0.7486,2.3788
6885.0,-3.5266,-17.1342,-7.2265,-2.1713,-1.3418,2.3714
6890.0,-3.5266,-17.1342,-7.2265,-2.1713,-1.3418,2.3714
6895.0,-3.5266,-17.1342,-7.2265,-2.1713,-1.3418,2.3714
6900.0,-3.5266,-17.1342,-7.2265,-2.1713,-1.3418,2.3714
6906.0,-3.5266,-17.1342,-7.2265,-2.1713,-1.3418,2.3714
6910.0,-3.5266,-17.1342,-7.2265,-2.1713,-1.3418,2.3714
6915.0,-1.4864,-10.6942,-6.5915,-1.5775,-0.7095,1.157
6920.0,-1.4864,-10.6942,-6.5915,-1.5775,-0.7095,1.157
6925.0,-1.4864,-10.6942,-6.5915,-1.5775,-0.7095,1.157
6930.0,-1.4864,-10.6942,-6.5915,-1.5775,-0.7095,1.157
6935.0,-1.4864,-10.6942,-6.5915,-1.5775,-0.7095,1.157
6940.0,-3.5075,-4.3782,-2.4638,-1.5775,-0.7095,1.157
6946.0,-3.5075,-4.3782,-2.4638,-1.0014,-0.6918,0.0648
6951.0,-3.5075,-4.3782,-2.4638,-1.0014,-0.6918,0.0648
6955.0,-3.5075,-4.3782,-2.4638,-1.0014,-0.6918,0.0648
6960.0,-3.5075,-4.3782,-2.4638,-1.0014,-0.6918,0.0648
6965.0,-6.3379,-2.8528,-0.6061,-1.0014,-0.6918,0.0648
6970.0,-6.3379,-2.8528,-0.6061,-1.0014,-0.6918,0.0648
6975.0,-6.3379,-2.8528,-0.6061,-0.3326,-0.2086,-0.1954
6980.0,-6.3379,-2.8528,-0.6061,-0.3326,-0.2086,-0.1954
6985.0,-6.3379,-2.8528,-0.6061,-0.3326,-0.2086,-0.1954
6990.0,-7.1808,-2.481,1.9151,-0.3326,-0.2086,-0.1954
6995.0,-7.1808,-2.481,1.9151,-0.3326,-0.2086,-0.1954
7000.0,-7.1808,-2.481,1.9151,-0.3326,-0.2086,-0.1954
7005.0,-7.1808,-2.481,1.9151,-0.5622,-0.3949,0.738
7011.0,-7.1808,-2.481,1.9151,-0.5622,-0.3949,0.738
7016.0,-7.1808,-2.481,1.9151,-0.5622,-0.3949,0.738
7021.0,-4.494,-4.2018,-1.0136,-0.5622,-0.3949,0.738
7025.0,-4.494,-4.2018,-1.0136,-0.5622,-0.3949,0.738
7030.0,-4.494,-4.2018,-1.0136,-0.5622,-0.3949,0.738
7036.0,-4.494,-4.2018,-1.0136,-0.1627,-1.1139,0.887
7040.0,-4.494,-4.2018,-1.0136,-0.1627,-1.1139,0.887
7045.0,-3.4883,-5.9083,-0.5397,-0.1627,-1.1139,0.887
7050.0,-3.4883,-5.9083,-0.5397,-0.1627,-1.1139,0.887
7056.0,-3.4883,-5.9083,-0.5397,-0.1627,-1.1139,0.887
7060.0,-3.4883,-5.9083,-0.5397,-0.1627,-1.1139,0.887
7065.0,-3.4883,-5.9083,-0.5397,-0.1627,-1.1139,0.887
7070.0,-3.4883,-5.9083,-0.5397,0.4518,-1.0797,-0.3933
7075.0,-9.2162,-13.1348,-11.5201,0.4518,-1.0797,-0.3933
7080.0,-9.2162,-13.1348,-11.5201,0.4518,-1.0797,-0.3933
7085.0,-9.2162,-13.1348,-11.5201,0.4518,-1.0797,-0.3933
7090.0,-9.2162,-13.1348,-11.5201,0.4518,-1.0797,-0.3933
7095.0,-9.2162,-13.1348,-11.5201,0.4518,-1.0797,-0.3933
7100.0,-7.8034,-11.6047,1.7303,1.0059,-4.2257,-1.4837
7105.0,-7.8034,-11.6047,1.7303,1.0059,-4.2257,-1.4837
7110.0,-7.8034,-11.6047,1.7303,1.0059,-4.2257,-1.4837
7115.0,-7.8034,-11.6047,1.7303,1.0059,-4.2257,-1.4837
7120.0,-7.8034,-11.6047,1.7303,1.0059,-4.2257,-1.4837
7125.0,-6.3139,-12.1052,3.4363,1.0059,-4.2257,-1.4837
7131.0,-6.3139,-12.1052,3.4363,-0.5378,9.0E-4,0.5346
7135.0,-6.3139,-12.1052,3.4363,-0.5378,9.0E-4,0.5346
7141.0,-6.3139,-12.1052,3.4363,-0.5378,9.0E-4,0.5346
7145.0,-6.3139,-12.1052,3.4363,-0.5378,9.0E-4,0.5346
7150.0,-6.3139,-12.1052,3.4363,-0.5378,9.0E-4,0.5346
7155.0,-7.3005,-8.5253,5.5357,-0.5378,9.0E-4,0.5346
7160.0,-7.3005,-8.5253,5.5357,-0.4566,2.1835,0.6372
7165.0,-7.3005,-8.5253,5.5357,-0.4566,2.1835,0.6372
7170.0,-7.3005,-8.5253,5.5357,-0.4566,2.1835,0.6372
7175.0,-7.3005,-8.5253,5.5357,-0.4566,2.1835,0.6372
7180.0,-12.1568,-12.7868,1.209,-0.4566,2.1835,0.6372
7185.0,-12.1568,-12.7868,1.209,-0.4566,2.1835,0.6372
7190.0,-12.1568,-12.7868,1.209,-0.4456,1.3748,0.9182
7195.0,-12.1568,-12.7868,1.209,-0.4456,1.3748,0.9182
7200.0,-12.1568,-12.7868,1.209,-0.4456,1.3748,0.9182
7205.0,-12.1568,-12.7868,1.209,-0.4456,1.3748,0.9182
7210.0,-14.3263,-13.6925,-10.6766,-0.4456,1.3748,0.9182
7215.0,-14.3263,-13.6925,-10.6766,-0.4456,1.3748,0.9182
7220.0,-14.3263,-13.6925,-10.6766,-0.4456,1.3748,0.9182
7225.0,-14.3263,-13.6925,-10.6766,0.4268,-3.1585,-1.039
7230.0,-14.3263,-13.6925,-10.6766,0.4268,-3.1585,-1.039
7235.0,-5.495,-8.7207,5.7774,0.4268,-3.1585,-1.039
7240.0,-5.495,-8.7207,5.7774,0.4268,-3.1585,-1.039
7245.0,-5.495,-8.7207,5.7774,0.4268,-3.1585,-1.039
7251.0,-5.495,-8.7207,5.7774,0.4268,-3.1585,-1.039
7256.0,-5.495,-8.7207,5.7774,1.5153,1.7364,-1.6902
7260.0,-1.8695,-4.6356,-2.3785,1.5153,1.7364,-1.6902
7265.0,-1.8695,-4.6356,-2.3785,1.5153,1.7364,-1.6902
7270.0,-1.8695,-4.6356,-2.3785,1.5153,1.7364,-1.6902
7275.0,-1.8695,-4.6356,-2.3785,1.5153,1.7364,-1.6902
7280.0,-1.8695,-4.6356,-2.3785,1.5153,1.7364,-1.6902
7285.0,-1.8695,-4.6356,-2.3785,1.676,-0.5018,0.2652
7290.0,-1.6492,-3.3533,0.6118,1.676,-0.5018,0.2652
7296.0,-1.6492,-3.3533,0.6118,1.676,-0.5018,0.2652
7300.0,-1.6492,-3.3533,0.6118,1.676,-0.5018,0.2652
7305.0,-1.6492,-3.3533,0.6118,1.676,-0.5018,0.2652
7310.0,-1.6492,-3.3533,0.6118,1.676,-0.5018,0.2652
7315.0,-1.6492,-3.3533,0.6118,1.676,-0.5018,0.2652
7321.0,-4.5084,-8.1487,1.3085,0.2099,-0.9044,0.1809
7326.0,-4.5084,-8.1487,1.3085,0.2099,-0.9044,0.1809
7330.0,-4.5084,-8.1487,1.3085,0.2099,-0.9044,0.1809
7335.0,-4.5084,-8.1487,1.3085,0.2099,-0.9044,0.1809
7340.0,-4.5084,-8.1487,1.3085,0.2099,-0.9044,0.1809
7346.0,-7.0323,-13.0156,2.2658,0.2099,-0.9044,0.1809
7350.0,-7.0323,-13.0156,2.2658,-0.2702,-1.1353,0.0508
7355.0,-7.0323,-13.0156,2.2658,-0.2702,-1.1353,0.0508
7360.0,-7.0323,-13.0156,2.2658,-0.2702,-1.1353,0.0508
7365.0,-7.0323,-13.0156,2.2658,-0.2702,-1.1353,0.0508
7370.0,-4.1013,-7.5291,0.2233,-0.2702,-1.1353,0.0508
7375.0,-4.1013,-7.5291,0.2233,-0.2702,-1.1353,0.0508
7380.0,-4.1013,-7.5291,0.2233,-0.6142,-1.536,0.7251
7386.0,-4.1013,-7.5291,0.2233,-0.6142,-1.536,0.7251
7390.0,-4.1013,-7.5291,0.2233,-0.6142,-1.536,0.7251
7395.0,-4.1013,-7.5291,0.2233,-0.6142,-1.536,0.7251
7400.0,-3.0668,-4.6547,1.0194,-0.6142,-1.536,0.7251
7405.0,-3.0668,-4.6547,1.0194,-0.6142,-1.536,0.7251
7410.0,-3.0668,-4.6547,1.0194,-1.2043,-1.0309,1.6219
7415.0,-3.0668,-4.6547,1.0194,-1.2043,-1.0309,1.6219
7420.0,-3.0668,-4.6547,1.0194,-1.2043,-1.0309,1.6219
7425.0,-4.7287,-4.9502,1.2848,-1.2043,-1.0309,1.6219
7430.0,-4.7287,-4.9502,1.2848,-1.2043,-1.0309,1.6219
7435.0,-4.7287,-4.9502,1.2848,-1.2043,-1.0309,1.6219
7441.0,-4.7287,-4.9502,1.2848,-0.9654,2.2978,1.2639
7445.0,-4.7287,-4.9502,1.2848,-0.9654,2.2978,1.2639
7450.0,-4.7287,-4.9502,1.2848,-0.9654,2.2978,1.2639
7456.0,-6.6348,-6.4565,-3.9803,-0.9654,2.2978,1.2639
7460.0,-6.6348,-6.4565,-3.9803,-0.9654,2.2978,1.2639
7465.0,-6.6348,-6.4565,-3.9803,-0.9654,2.2978,1.2639
7470.0,-6.6348,-6.4565,-3.9803,-0.5573,0.9093,1.2358
7475.0,-6.6348,-6.4565,-3.9803,-0.5573,0.9093,1.2358
7480.0,-8.2584,-6.876,-3.4211,-0.5573,0.9093,1.2358
7485.0,-8.2584,-6.876,-3.4211,-0.5573,0.9093,1.2358
7491.0,-8.2584,-6.876,-3.4211,-0.5573,0.9093,1.2358
7496.0,-8.2584,-6.876,-3.4211,-0.5573,0.9093,1.2358
7500.0,-8.2584,-6.876,-3.4211,-0.5573,0.9093,1.2358
7505.0,-4.2642,-4.24,-0.6772,0.1855,0.3076,-0.5571
7511.0,-4.2642,-4.24,-0.6772,0.1855,0.3076,-0.5571
7515.0,-4.2642,-4.24,-0.6772,0.1855,0.3076,-0.5571
7520.0,-4.2642,-4.24,-0.6772,0.1855,0.3076,-0.5571
7525.0,-4.2642,-4.24,-0.6772,0.1855,0.3076,-0.5571
7530.0,-4.2642,-4.24,-0.6772,0.1855,0.3076,-0.5571
7536.0,-3.2153,-4.1875,1.0952,0.2374,0.2874,-0.8778
7540.0,-3.2153,-4.1875,1.0952,0.2374,0.2874,-0.8778
7545.0,-3.2153,-4.1875,1.0952,0.2374,0.2874,-0.8778
7550.0,-3.2153,-4.1875,1.0952,0.2374,0.2874,-0.8778
7555.0,-3.2153,-4.1875,1.0952,0.2374,0.2874,-0.8778
7560.0,-4.8197,-3.8396,-0.6203,0.2374,0.2874,-0.8778
7566.0,-4.8197,-3.8396,-0.6203,0.3632,0.2532,-0.6414
7571.0,-4.8197,-3.8396,-0.6203,0.3632,0.2532,-0.6414
7576.0,-4.8197,-3.8396,-0.6203,0.3632,0.2532,-0.6414
7581.0,-4.8197,-3.8396,-0.6203,0.3632,0.2532,-0.6414
7586.0,-8.5457,-5.6128,-1.4307,0.3632,0.2532,-0.6414
7590.0,-8.5457,-5.6128,-1.4307,0.3632,0.2532,-0.6414
7596.0,-8.5457,-5.6128,-1.4307,0.5618,0.2892,-1.0769
7600.0,-8.5457,-5.6128,-1.4307,0.5618,0.2892,-1.0769
7605.0,-8.5457,-5.6128,-1.4307,0.5618,0.2892,-1.0769
7610.0,-8.5457,-5.6128,-1.4307,0.5618,0.2892,-1.0769
7616.0,-8.2823,-5.2791,-1.7766,0.5618,0.2892,-1.0769
7620.0,-8.2823,-5.2791,-1.7766,0.5618,0.2892,-1.0769
7625.0,-8.2823,-5.2791,-1.7766,0.5147,1.0565,-0.7794
7630.0,-8.2823,-5.2791,-1.7766,0.5147,1.0565,-0.7794
7636.0,-8.2823,-5.2791,-1.7766,0.5147,1.0565,-0.7794
7640.0,-5.2124,-7.8818,-1.4781,0.5147,1.0565,-0.7794
7645.0,-5.2124,-7.8818,-1.4781,0.5147,1.0565,-0.7794
7651.0,-5.2124,-7.8818,-1.4781,0.5147,1.0565,-0.7794
7656.0,-5.2124,-7.8818,-1.4781,0.596,2.9276,-0.6829
7660.0,-5.2124,-7.8818,-1.4781,0.596,2.9276,-0.6829
7665.0,-4.9825,-9.9744,-3.3737,0.596,2.9276,-0.6829
7670.0,-4.9825,-9.9744,-3.3737,0.596,2.9276,-0.6829
7675.0,-4.9825,-9.9744,-3.3737,0.596,2.9276,-0.6829
7680.0,-4.9825,-9.9744,-3.3737,0.596,2.9276,-0.6829
7685.0,-4.9825,-9.9744,-3.3737,0.596,2.9276,-0.6829
7690.0,-6.6013,-13.8308,-7.4161,0.7554,3.792,-1.8582
7695.0,-6.6013,-13.8308,-7.4161,0.7554,3.792,-1.8582
7700.0,-6.6013,-13.8308,-7.4161,0.7554,3.792,-1.8582
7705.0,-6.6013,-13.8308,-7.4161,0.7554,3.792,-1.8582
7710.0,-6.6013,-13.8308,-7.4161,0.7554,3.792,-1.8582
7716.0,-7.267,-12.8584,-2.369,0.7554,3.792,-1.8582
7720.0,-7.267,-12.8584,-2.369,0.7737,3.1316,-2.8069
7725.0,-7.267,-12.8584,-2.369,0.7737,3.1316,-2.8069
7730.0,-7.267,-12.8584,-2.369,0.7737,3.1316,-2.8069
7736.0,-7.267,-12.8584,-2.369,0.7737,3.1316,-2.8069
7740.0,-7.267,-12.8584,-2.369,0.7737,3.1316,-2.8069
7745.0,-6.5678,-10.7228,-2.0468,0.7737,3.1316,-2.8069
7750.0,-6.5678,-10.7228,-2.0468,0.7737,3.1316,-2.8069
7755.0,-6.5678,-10.7228,-2.0468,0.2838,2.4737,-2.7073
7760.0,-6.5678,-10.7228,-2.0468,0.2838,2.4737,-2.7073
7768.0,-6.5678,-10.7228,-2.0468,0.2838,2.4737,-2.7073
7771.0,-7.1568,-10.7705,-4.4447,0.2838,2.4737,-2.7073
7775.0,-7.1568,-10.7705,-4.4447,0.2838,2.4737,-2.7073
7781.0,-7.1568,-10.7705,-4.4447,0.2838,2.4737,-2.7073
7785.0,-7.1568,-10.7705,-4.4447,0.0657,0.0302,-2.7269
7790.0,-7.1568,-10.7705,-4.4447,0.0657,0.0302,-2.7269
7795.0,-7.1568,-10.7705,-4.4447,0.0657,0.0302,-2.7269
7800.0,-13.7133,-15.0844,-7.2123,0.0657,0.0302,-2.7269
7805.0,-13.7133,-15.0844,-7.2123,0.0657,0.0302,-2.7269
7810.0,-13.7133,-15.0844,-7.2123,0.0657,0.0302,-2.7269
7815.0,-13.7133,-15.0844,-7.2123,1.1054,-0.4444,-2.6114
7820.0,-13.7133,-15.0844,-7.2123,1.1054,-0.4444,-2.6114
7825.0,-10.6003,-11.1375,-6.293,1.1054,-0.4444,-2.6114
7830.0,-10.6003,-11.1375,-6.293,1.1054,-0.4444,-2.6114
7835.0,-10.6003,-11.1375,-6.293,1.1054,-0.4444,-2.6114
7840.0,-10.6003,-11.1375,-6.293,1.1054,-0.4444,-2.6114
7846.0,-10.6003,-11.1375,-6.293,1.158,-0.3736,-1.1789
7850.0,-10.6003,-11.1375,-6.293,1.158,-0.3736,-1.1789
7855.0,-4.5276,-4.8692,-2.7339,1.158,-0.3736,-1.1789
7861.0,-4.5276,-4.8692,-2.7339,1.158,-0.3736,-1.1789
7865.0,-4.5276,-4.8692,-2.7339,1.158,-0.3736,-1.1789
7870.0,-4.5276,-4.8692,-2.7339,1.158,-0.3736,-1.1789
7875.0,-4.5276,-4.8692,-2.7339,1.158,-0.3736,-1.1789
7880.0,-2.449,-3.0959,-1.0847,0.5165,-0.0809,-0.0452
7885.0,-2.449,-3.0959,-1.0847,0.5165,-0.0809,-0.0452
7891.0,-2.449,-3.0959,-1.0847,0.5165,-0.0809,-0.0452
7895.0,-2.449,-3.0959,-1.0847,0.5165,-0.0809,-0.0452
7900.0,-2.449,-3.0959,-1.0847,0.5165,-0.0809,-0.0452
7906.0,-2.4538,-3.2056,-0.7435,0.5165,-0.0809,-0.0452
7910.0,-2.4538,-3.2056,-0.7435,-0.2025,-0.4108,0.5957
7915.0,-2.4538,-3.2056,-0.7435,-0.2025,-0.4108,0.5957
7921.0,-2.4538,-3.2056,-0.7435,-0.2025,-0.4108,0.5957
7925.0,-2.4538,-3.2056,-0.7435,-0.2025,-0.4108,0.5957
7930.0,-2.4538,-3.2056,-0.7435,-0.2025,-0.4108,0.5957
7935.0,-4.1205,-3.7013,-2.4543,-0.2025,-0.4108,0.5957
7940.0,-4.1205,-3.7013,-2.4543,-0.4279,-0.9783,1.2963
7945.0,-4.1205,-3.7013,-2.4543,-0.4279,-0.9783,1.2963
7950.0,-4.1205,-3.7013,-2.4543,-0.4279,-0.9783,1.2963
7955.0,-4.1205,-3.7013,-2.4543,-0.4279,-0.9783,1.2963
7960.0,-4.9059,-3.83,-5.4778,-0.4279,-0.9783,1.2963
7965.0,-4.9059,-3.83,-5.4778,-0.4279,-0.9783,1.2963
7970.0,-4.9059,-3.83,-5.4778,-0.4279,-0.9783,1.2963
7975.0,-4.9059,-3.83,-5.4778,-0.3356,-2.153,2.3751
7980.0,-4.9059,-3.83,-5.4778,-0.3356,-2.153,2.3751
7985.0,-4.9059,-3.83,-5.4778,-0.3356,-2.153,2.3751
7990.0,-3.5889,-3.5535,-3.9424,-0.3356,-2.153,2.3751
7995.0,-3.5889,-3.5535,-3.9424,-0.3356,-2.153,2.3751
8000.0,-3.5889,-3.5535,-3.9424,-0.3356,-2.153,2.3751
8005.0,-3.5889,-3.5535,-3.9424,-0.7498,-1.7486,2.7398
8010.0,-3.5889,-3.5535,-3.9424,-0.7498,-1.7486,2.7398
8015.0,-2.9232,-4.4163,-1.7245,-0.7498,-1.7486,2.7398
8020.0,-2.9232,-4.4163,-1.7245,-0.7498,-1.7486,2.7398
8025.0,-2.9232,-4.4163,-1.7245,-0.7498,-1.7486,2.7398
8031.0,-2.9232,-4.4163,-1.7245,-0.7498,-1.7486,2.7398
8036.0,-2.9232,-4.4163,-1.7245,-0.7498,-1.7486,2.7398
8040.0,-2.9232,-4.4163,-1.7245,-1.6441,-0.5403,2.1491
8045.0,-4.7191,-7.1477,-0.753,-1.6441,-0.5403,2.1491
8051.0,-4.7191,-7.1477,-0.753,-1.6441,-0.5403,2.1491
8055.0,-4.7191,-7.1477,-0.753,-1.6441,-0.5403,2.1491
8060.0,-4.7191,-7.1477,-0.753,-1.6441,-0.5403,2.1491
8065.0,-4.7191,-7.1477,-0.753,-1.6441,-0.5403,2.1491
8072.0,-4.973,-7.6816,-3.5064,-0.7864,0.4224,1.4496
8076.0,-4.973,-7.6816,-3.5064,-0.7864,0.4224,1.4496
8080.0,-4.973,-7.6816,-3.5064,-0.7864,0.4224,1.4496
8085.0,-4.973,-7.6816,-3.5064,-0.7864,0.4224,1.4496
8090.0,-4.973,-7.6816,-3.5064,-0.7864,0.4224,1.4496
8095.0,-4.973,-7.6816,-3.5064,-0.7864,0.4224,1.4496
8100.0,-4.6569,-4.9979,-7.1697,-0.5885,-0.7187,1.008
8105.0,-4.6569,-4.9979,-7.1697,-0.5885,-0.7187,1.008
8110.0,-4.6569,-4.9979,-7.1697,-0.5885,-0.7187,1.008
8115.0,-4.6569,-4.9979,-7.1697,-0.5885,-0.7187,1.008
8121.0,-4.6569,-4.9979,-7.1697,-0.5885,-0.7187,1.008
8126.0,-6.4959,-8.7398,-3.7244,-0.5885,-0.7187,1.008
8130.0,-6.4959,-8.7398,-3.7244,-0.6521,-1.7682,0.2719
8135.0,-6.4959,-8.7398,-3.7244,-0.6521,-1.7682,0.2719
8140.0,-6.4959,-8.7398,-3.7244,-0.6521,-1.7682,0.2719
8145.0,-6.4959,-8.7398,-3.7244,-0.6521,-1.7682,0.2719
8150.0,-6.4959,-8.7398,-3.7244,-0.6521,-1.7682,0.2719
8155.0,-5.5764,-8.1583,0.6118,-0.6521,-1.7682,0.2719
8160.0,-5.5764,-8.1583,0.6118,-0.0302,-1.0119,0.4613
8165.0,-5.5764,-8.1583,0.6118,-0.0302,-1.0119,0.4613
8170.0,-5.5764,-8.1583,0.6118,-0.0302,-1.0119,0.4613
8175.0,-5.5764,-8.1583,0.6118,-0.0302,-1.0119,0.4613
8180.0,-1.7115,-5.0408,-1.6676,-0.0302,-1.0119,0.4613
8185.0,-1.7115,-5.0408,-1.6676,-0.0302,-1.0119,0.4613
8190.0,-1.7115,-5.0408,-1.6676,-0.0302,-1.0119,0.4613
8195.0,-1.7115,-5.0408,-1.6676,-0.0607,-0.4701,0.5681
8200.0,-1.7115,-5.0408,-1.6676,-0.0607,-0.4701,0.5681
8205.0,-1.7115,-5.0408,-1.6676,-0.0607,-0.4701,0.5681
8210.0,-3.8427,-4.0922,-8.0938,-0.0607,-0.4701,0.5681
8215.0,-3.8427,-4.0922,-8.0938,-0.0607,-0.4701,0.5681
8220.0,-3.8427,-4.0922,-8.0938,-0.0607,-0.4701,0.5681
8225.0,-3.8427,-4.0922,-8.0938,-0.0412,-0.9612,-0.3384
8230.0,-3.8427,-4.0922,-8.0938,-0.0412,-0.9612,-0.3384
8235.0,-7.8273,-6.8569,-7.8474,-0.0412,-0.9612,-0.3384
8240.0,-7.8273,-6.8569,-7.8474,-0.0412,-0.9612,-0.3384
8245.0,-7.8273,-6.8569,-7.8474,-0.0412,-0.9612,-0.3384
8250.0,-7.8273,-6.8569,-7.8474,-0.0412,-0.9612,-0.3384
8256.0,-7.8273,-6.8569,-7.8474,0.4952,-3.2617,-2.4978
8260.0,-8.0764,-11.8287,-3.2789,0.4952,-3.2617,-2.4978
8265.0,-8.0764,-11.8287,-3.2789,0.4952,-3.2617,-2.4978
8270.0,-8.0764,-11.8287,-3.2789,0.4952,-3.2617,-2.4978
8275.0,-8.0764,-11.8287,-3.2789,0.4952,-3.2617,-2.4978
8280.0,-8.0764,-11.8287,-3.2789,0.4952,-3.2617,-2.4978
8285.0,-8.0764,-11.8287,-3.2789,0.4952,-3.2617,-2.4978
8290.0,-8.0189,-14.0024,4.5121,-0.346,-1.624,-1.6059
8295.0,-8.0189,-14.0024,4.5121,-0.346,-1.624,-1.6059
8300.0,-8.0189,-14.0024,4.5121,-0.346,-1.624,-1.6059
8305.0,-8.0189,-14.0024,4.5121,-0.346,-1.624,-1.6059
8310.0,-8.0189,-14.0024,4.5121,-0.346,-1.624,-1.6059
8315.0,-4.7287,-11.2376,-6.7669,-0.346,-1.624,-1.6059
8320.0,-4.7287,-11.2376,-6.7669,-0.7315,-0.9435,0.8247
8325.0,-4.7287,-11.2376,-6.7669,-0.7315,-0.9435,0.8247
8330.0,-4.7287,-11.2376,-6.7669,-0.7315,-0.9435,0.8247
8335.0,-4.7287,-11.2376,-6.7669,-0.7315,-0.9435,0.8247
8340.0,-4.0295,-6.2515,4.3604,-0.7315,-0.9435,0.8247
8345.0,-4.0295,-6.2515,4.3604,-0.7315,-0.9435,0.8247
8350.0,-4.0295,-6.2515,4.3604,-0.7315,-0.9435,0.8247
8355.0,-4.0295,-6.2515,4.3604,-1.3215,0.0785,0.259
8360.0,-4.0295,-6.2515,4.3604,-1.3215,0.0785,0.259
8365.0,-4.0295,-6.2515,4.3604,-1.3215,0.0785,0.259
8370.0,-5.2268,-5.6748,5.8864,-1.3215,0.0785,0.259
8375.0,-5.2268,-5.6748,5.8864,-1.3215,0.0785,0.259
8380.0,-5.2268,-5.6748,5.8864,-1.3215,0.0785,0.259
8385.0,-5.2268,-5.6748,5.8864,-0.9459,3.3363,0.0709
8391.0,-5.2268,-5.6748,5.8864,-0.9459,3.3363,0.0709
8395.0,-10.0639,-10.8468,2.5406,-0.9459,3.3363,0.0709
8400.0,-10.0639,-10.8468,2.5406,-0.9459,3.3363,0.0709
8405.0,-10.0639,-10.8468,2.5406,-0.9459,3.3363,0.0709
8411.0,-10.0639,-10.8468,2.5406,-0.9459,3.3363,0.0709
8415.0,-10.0639,-10.8468,2.5406,-0.7626,-2.2728,1.7343
8420.0,-17.6884,-15.6326,-10.6955,-0.7626,-2.2728,1.7343
8425.0,-17.6884,-15.6326,-10.6955,-0.7626,-2.2728,1.7343
8430.0,-17.6884,-15.6326,-10.6955,-0.7626,-2.2728,1.7343
8435.0,-17.6884,-15.6326,-10.6955,-0.7626,-2.2728,1.7343
8440.0,-17.6884,-15.6326,-10.6955,-0.7626,-2.2728,1.7343
8445.0,-17.6884,-15.6326,-10.6955,0.3125,-1.3277,-1.5974
8450.0,-6.2613,-9.0258,3.3463,0.3125,-1.3277,-1.5974
8455.0,-6.2613,-9.0258,3.3463,0.3125,-1.3277,-1.5974
8460.0,-6.2613,-9.0258,3.3463,0.3125,-1.3277,-1.5974
8465.0,-6.2613,-9.0258,3.3463,0.3125,-1.3277,-1.5974
8470.0,-6.2613,-9.0258,3.3463,0.3125,-1.3277,-1.5974
8475.0,-4.8053,-6.6567,-0.1891,0.4054,-1.0638,0.4344
8480.0,-4.8053,-6.6567,-0.1891,0.4054,-1.0638,0.4344
8485.0,-4.8053,-6.6567,-0.1891,0.4054,-1.0638,0.4344
8491.0,-4.8053,-6.6567,-0.1891,0.4054,-1.0638,0.4344
8496.0,-4.8053,-6.6567,-0.1891,0.4054,-1.0638,0.4344
8500.0,-4.8101,-6.2944,3.3747,0.4054,-1.0638,0.4344
8511.0,-4.8101,-6.2944,3.3747,-0.1731,0.6411,1.2554
8512.0,-4.8101,-6.2944,3.3747,-0.1731,0.6411,1.2554
8515.0,-4.8101,-6.2944,3.3747,-0.1731,0.6411,1.2554
8520.0,-4.8101,-6.2944,3.3747,-0.1731,0.6411,1.2554
8525.0,-4.8101,-6.2944,3.3747,-0.1731,0.6411,1.2554
8530.0,-5.1645,-7.8627,1.2895,-0.1731,0.6411,1.2554
8535.0,-5.1645,-7.8627,1.2895,-0.1731,0.6411,1.2554
8541.0,-5.1645,-7.8627,1.2895,0.1977,0.8152,1.256
8545.0,-5.1645,-7.8627,1.2895,0.1977,0.8152,1.256
8550.0,-5.1645,-7.8627,1.2895,0.1977,0.8152,1.256
8555.0,-5.5525,-8.7303,0.0147,0.1977,0.8152,1.256
8560.0,-5.5525,-8.7303,0.0147,0.1977,0.8152,1.256
8565.0,-5.5525,-8.7303,0.0147,0.1977,0.8152,1.256
8571.0,-5.5525,-8.7303,0.0147,0.1977,0.8152,1.256
8575.0,-5.5525,-8.7303,0.0147,-0.0522,-0.7755,0.8785
8580.0,-5.5525,-8.7303,0.0147,-0.0522,-0.7755,0.8785
8585.0,-4.7766,-8.2012,-0.0042,-0.0522,-0.7755,0.8785
8591.0,-4.7766,-8.2012,-0.0042,-0.0522,-0.7755,0.8785
8595.0,-4.7766,-8.2012,-0.0042,-0.0522,-0.7755,0.8785
8600.0,-4.7766,-8.2012,-0.0042,-0.0522,-0.7755,0.8785
8605.0,-4.7766,-8.2012,-0.0042,-0.0968,-2.2062,0.7245
8610.0,-4.7766,-8.2012,-0.0042,-0.0968,-2.2062,0.7245
8615.0,-3.426,-6.509,-1.625,-0.0968,-2.2062,0.7245
8620.0,-3.426,-6.509,-1.625,-0.0968,-2.2062,0.7245
8625.0,-3.426,-6.509,-1.625,-0.0968,-2.2062,0.7245
8630.0,-3.426,-6.509,-1.625,-0.0968,-2.2062,0.7245
8635.0,-3.426,-6.509,-1.625,-0.1994,-2.2782,0.6256
8640.0,-4.3983,-5.7129,-5.203,-0.1994,-2.2782,0.6256
8645.0,-4.3983,-5.7129,-5.203,-0.1994,-2.2782,0.6256
8651.0,-4.3983,-5.7129,-5.203,-0.1994,-2.2782,0.6256
8655.0,-4.3983,-5.7129,-5.203,-0.1994,-2.2782,0.6256
8661.0,-4.3983,-5.7129,-5.203,-0.1994,-2.2782,0.6256
8665.0,-4.3983,-5.7129,-5.203,-0.0308,-0.1396,-1.1459
8670.0,-4.1588,-6.1896,-3.6533,-0.0308,-0.1396,-1.1459
8676.0,-4.1588,-6.1896,-3.6533,-0.0308,-0.1396,-1.1459
8680.0,-4.1588,-6.1896,-3.6533,-0.0308,-0.1396,-1.1459
8685.0,-4.1588,-6.1896,-3.6533,-0.0308,-0.1396,-1.1459
8691.0,-4.1588,-6.1896,-3.6533,-0.0308,-0.1396,-1.1459
8696.0,-4.5563,-5.036,2.517,0.0486,-0.2227,-1.2388
8700.0,-4.5563,-5.036,2.517,0.0486,-0.2227,-1.2388
8705.0,-4.5563,-5.036,2.517,0.0486,-0.2227,-1.2388
8710.0,-4.5563,-5.036,2.517,0.0486,-0.2227,-1.2388
8715.0,-4.5563,-5.036,2.517,0.0486,-0.2227,-1.2388
8720.0,-4.5563,-5.036,2.517,0.0486,-0.2227,-1.2388
8725.0,-5.7105,-3.7919,-0.0421,-0.2941,0.1646,-0.703
8731.0,-5.7105,-3.7919,-0.0421,-0.2941,0.1646,-0.703
8735.0,-5.7105,-3.7919,-0.0421,-0.2941,0.1646,-0.703
8740.0,-5.7105,-3.7919,-0.0421,-0.2941,0.1646,-0.703
8745.0,-5.7105,-3.7919,-0.0421,-0.2941,0.1646,-0.703
8750.0,-9.3647,-5.3935,-1.3264,-0.2941,0.1646,-0.703
8756.0,-9.3647,-5.3935,-1.3264,-0.2324,-0.4957,-0.0885
8761.0,-9.3647,-5.3935,-1.3264,-0.2324,-0.4957,-0.0885
8766.0,-9.3647,-5.3935,-1.3264,-0.2324,-0.4957,-0.0885
8770.0,-9.3647,-5.3935,-1.3264,-0.2324,-0.4957,-0.0885
8775.0,-9.3647,-5.3935,-1.3264,-0.2324,-0.4957,-0.0885
8780.0,-10.4039,-4.383,-3.4116,-0.2324,-0.4957,-0.0885
8785.0,-10.4039,-4.383,-3.4116,-0.2324,-0.4957,-0.0885
8790.0,-10.4039,-4.383,-3.4116,0.5104,0.6411,-1.8661
8796.0,-10.4039,-4.383,-3.4116,0.5104,0.6411,-1.8661
8801.0,-10.4039,-4.383,-3.4116,0.5104,0.6411,-1.8661
8806.0,-5.8733,-7.0714,-0.7103,0.5104,0.6411,-1.8661
8810.0,-5.8733,-7.0714,-0.7103,0.5104,0.6411,-1.8661
8815.0,-5.8733,-7.0714,-0.7103,0.5104,0.6411,-1.8661
8820.0,-5.8733,-7.0714,-0.7103,0.7212,2.4456,-0.5864
8825.0,-5.8733,-7.0714,-0.7103,0.7212,2.4456,-0.5864
8830.0,-5.8733,-7.0714,-0.7103,0.7212,2.4456,-0.5864
8835.0,-3.1291,-7.3527,-4.53,0.7212,2.4456,-0.5864
8840.0,-3.1291,-7.3527,-4.53,0.7212,2.4456,-0.5864
8845.0,-3.1291,-7.3527,-4.53,0.7212,2.4456,-0.5864
8850.0,-3.1291,-7.3527,-4.53,0.7402,4.8011,-1.6652
8856.0,-3.1291,-7.3527,-4.53,0.7402,4.8011,-1.6652
8860.0,-4.6904,-11.8954,-4.5632,0.7402,4.8011,-1.6652
8865.0,-4.6904,-11.8954,-4.5632,0.7402,4.8011,-1.6652
8870.0,-4.6904,-11.8954,-4.5632,0.7402,4.8011,-1.6652
8875.0,-4.6904,-11.8954,-4.5632,0.7402,4.8011,-1.6652
8881.0,-4.6904,-11.8954,-4.5632,0.7402,4.8011,-1.6652
8885.0,-4.6904,-13.8689,-4.0514,1.3498,4.2819,-2.6499
8890.0,-6.9796,-13.8689,-4.0514,1.3498,4.2819,-2.6499
8895.0,-6.9796,-13.8689,-4.0514,1.3498,4.2819,-2.6499
8900.0,-6.9796,-13.8689,-4.0514,1.3498,4.2819,-2.6499
8905.0,-6.9796,-13.8689,-4.0514,1.3498,4.2819,-2.6499
8910.0,-6.9796,-13.8689,-4.0514,1.3498,4.2819,-2.6499
8918.0,-8.2584,-12.0623,-2.3737,1.4023,2.2984,-2.9908
8920.0,-8.2584,-12.0623,-2.3737,1.4023,2.2984,-2.9908
8926.0,-8.2584,-12.0623,-2.3737,1.4023,2.2984,-2.9908
8930.0,-8.2584,-12.0623,-2.3737,1.4023,2.2984,-2.9908
8936.0,-8.2584,-12.0623,-2.3737,1.4023,2.2984,-2.9908
8941.0,-7.7555,-10.4606,-3.7576,1.4023,2.2984,-2.9908
8945.0,-7.7555,-10.4606,-3.7576,0.7261,0.434,-3.2192
8950.0,-7.7555,-10.4606,-3.7576,0.7261,0.434,-3.2192
8958.0,-7.7555,-10.4606,-3.7576,0.7261,0.434,-3.2192
8961.0,-7.7555,-10.4606,-3.7576,0.7261,0.434,-3.2192
8965.0,-7.7028,-8.6445,-0.4213,0.7261,0.434,-3.2192
8970.0,-7.7028,-8.6445,-0.4213,0.7261,0.434,-3.2192
8975.0,-7.7028,-8.6445,-0.4213,0.7261,0.434,-3.2192
8980.0,-7.7028,-8.6445,-0.4213,0.9326,-0.5324,-2.9291
8985.0,-7.7028,-8.6445,-0.4213,0.9326,-0.5324,-2.9291
8990.0,-7.7028,-8.6445,-0.4213,0.9326,-0.5324,-2.9291
8995.0,-9.6233,-8.0153,-2.5349,0.9326,-0.5324,-2.9291
9000.0,-9.6233,-8.0153,-2.5349,0.9326,-0.5324,-2.9291
9005.0,-9.6233,-8.0153,-2.5349,0.9326,-0.5324,-2.9291
9010.0,-9.6233,-8.0153,-2.5349,1.4463,0.1323,-0.9328
9015.0,-9.6233,-8.0153,-2.5349,1.4463,0.1323,-0.9328
9020.0,-9.1923,-6.6138,-5.4447,1.4463,0.1323,-0.9328
9025.0,-9.1923,-6.6138,-5.4447,1.4463,0.1323,-0.9328
9030.0,-9.1923,-6.6138,-5.4447,1.4463,0.1323,-0.9328
9035.0,-9.1923,-6.6138,-5.4447,1.4463,0.1323,-0.9328
9040.0,-9.1923,-6.6138,-5.4447,1.5575,-0.2825,-0.0494
9045.0,-9.1923,-6.6138,-5.4447,1.5575,-0.2825,-0.0494
9051.0,-6.4528,-5.4698,-5.8854,1.5575,-0.2825,-0.0494
9055.0,-6.4528,-5.4698,-5.8854,1.5575,-0.2825,-0.0494
9060.0,-6.4528,-5.4698,-5.8854,1.5575,-0.2825,-0.0494
9066.0,-6.4528,-5.4698,-5.8854,1.5575,-0.2825,-0.0494
9070.0,-6.4528,-5.4698,-5.8854,1.1995,-0.6374,0.6237
9076.0,-3.972,-3.768,-4.3878,1.1995,-0.6374,0.6237
9080.0,-3.972,-3.768,-4.3878,1.1995,-0.6374,0.6237
9085.0,-3.972,-3.768,-4.3878,1.1995,-0.6374,0.6237
9090.0,-3.972,-3.768,-4.3878,1.1995,-0.6374,0.6237
9095.0,-3.972,-3.768,-4.3878,1.1995,-0.6374,0.6237
9101.0,-2.267,-0.7697,-2.824,-0.1676,-0.0406,1.7251
9105.0,-2.267,-0.7697,-2.824,-0.1676,-0.0406,1.7251
9110.0,-2.267,-0.7697,-2.824,-0.1676,-0.0406,1.7251
9115.0,-2.267,-0.7697,-2.824,-0.1676,-0.0406,1.7251
9120.0,-2.267,-0.7697,-2.824,-0.1676,-0.0406,1.7251
9125.0,-2.6263,0.1646,-2.8713,-0.1676,-0.0406,1.7251
9130.0,-2.6263,0.1646,-2.8713,-0.1676,-0.0406,1.7251
9135.0,-2.6263,0.1646,-2.8713,-1.0326,0.1152,2.5126
9140.0,-2.6263,0.1646,-2.8713,-1.0326,0.1152,2.5126
9145.0,-2.6263,0.1646,-2.8713,-1.0326,0.1152,2.5126
9151.0,-1.7211,-3.134,-4.203,-1.0326,0.1152,2.5126
9155.0,-1.7211,-3.134,-4.203,-1.0326,0.1152,2.5126
9161.0,-1.7211,-3.134,-4.203,-1.0326,0.1152,2.5126
9166.0,-1.7211,-3.134,-4.203,-1.0326,0.1152,2.5126
9171.0,-1.7211,-3.134,-4.203,-1.608,-1.0168,2.8296
9175.0,-1.7211,-3.134,-4.203,-1.608,-1.0168,2.8296
9181.0,-1.836,-9.0783,-5.5347,-1.608,-1.0168,2.8296
9186.0,-1.836,-9.0783,-5.5347,-1.608,-1.0168,2.8296
9190.0,-1.836,-9.0783,-5.5347,-1.608,-1.0168,2.8296
9195.0,-1.836,-9.0783,-5.5347,-1.608,-1.0168,2.8296
9201.0,-1.836,-9.0783,-5.5347,-1.5335,-1.6331,2.3812
9205.0,-1.836,-9.0783,-5.5347,-1.5335,-1.6331,2.3812
9211.0,-3.4644,-11.9479,-6.0134,-1.5335,-1.6331,2.3812
9216.0,-3.4644,-11.9479,-6.0134,-1.5335,-1.6331,2.3812
9220.0,-3.4644,-11.9479,-6.0134,-1.5335,-1.6331,2.3812
9225.0,-3.4644,-11.9479,-6.0134,-1.5335,-1.6331,2.3812
9230.0,-3.4644,-11.9479,-6.0134,-0.7553,-1.2446,1.1717
9235.0,-4.0822,-7.7483,-4.876,-0.7553,-1.2446,1.1717
9240.0,-4.0822,-7.7483,-4.876,-0.7553,-1.2446,1.1717
9245.0,-4.0822,-7.7483,-4.876,-0.7553,-1.2446,1.1717
9250.0,-4.0822,-7.7483,-4.876,-0.7553,-1.2446,1.1717
9255.0,-4.0822,-7.7483,-4.876,-0.7553,-1.2446,1.1717
9260.0,-6.2661,-3.4916,-2.3027,-1.1181,-1.3045,-0.0592
9265.0,-6.2661,-3.4916,-2.3027,-1.1181,-1.3045,-0.0592
9270.0,-6.2661,-3.4916,-2.3027,-1.1181,-1.3045,-0.0592
9275.0,-6.2661,-3.4916,-2.3027,-1.1181,-1.3045,-0.0592
9281.0,-6.2661,-3.4916,-2.3027,-1.1181,-1.3045,-0.0592
9285.0,-8.1003,-2.9672,-0.0279,-1.1181,-1.3045,-0.0592
9290.0,-8.1003,-2.9672,-0.0279,-1.1181,-1.3045,-0.0592
9295.0,-8.1003,-2.9672,-0.0279,-0.5659,-0.3222,0.9041
9300.0,-8.1003,-2.9672,-0.0279,-0.5659,-0.3222,0.9041
9305.0,-8.1003,-2.9672,-0.0279,-0.5659,-0.3222,0.9041
9310.0,-8.1003,-2.9672,-0.0279,-0.5659,-0.3222,0.9041
9315.0,-6.4001,-2.9434,-0.1322,-0.5659,-0.3222,0.9041
9321.0,-6.4001,-2.9434,-0.1322,-0.5659,-0.3222,0.9041
9325.0,-6.4001,-2.9434,-0.1322,0.1091,-0.3564,2.1754
9330.0,-6.4001,-2.9434,-0.1322,0.1091,-0.3564,2.1754
9335.0,-6.4001,-2.9434,-0.1322,0.1091,-0.3564,2.1754
9340.0,-3.8475,-4.116,0.1759,0.1091,-0.3564,2.1754
9345.0,-3.8475,-4.116,0.1759,0.1091,-0.3564,2.1754
9351.0,-3.8475,-4.116,0.1759,0.1091,-0.3564,2.1754
9355.0,-3.8475,-4.116,0.1759,0.4506,-0.6863,2.0239
9360.0,-3.8475,-4.116,0.1759,0.4506,-0.6863,2.0239
9366.0,-3.8475,-4.116,0.1759,0.4506,-0.6863,2.0239
9370.0,-5.1214,-6.5042,-3.2173,0.4506,-0.6863,2.0239
9375.0,-5.1214,-6.5042,-3.2173,0.4506,-0.6863,2.0239
9380.0,-5.1214,-6.5042,-3.2173,0.4506,-0.6863,2.0239
9385.0,-5.1214,-6.5042,-3.2173,0.4506,-0.6863,2.0239
9390.0,-5.1214,-6.5042,-3.2173,1.0938,0.5379,0.0477
9396.0,-7.3436,-12.2863,-12.1741,1.0938,0.5379,0.0477
9400.0,-7.3436,-12.2863,-12.1741,1.0938,0.5379,0.0477
9405.0,-7.3436,-12.2863,-12.1741,1.0938,0.5379,0.0477
9411.0,-7.3436,-12.2863,-12.1741,1.0938,0.5379,0.0477
9415.0,-7.3436,-12.2863,-12.1741,1.0938,0.5379,0.0477
9420.0,-4.7574,-18.7596,-5.3783,0.2795,-2.1158,-0.9162
9425.0,-4.7574,-18.7596,-5.3783,0.2795,-2.1158,-0.9162
9430.0,-4.7574,-18.7596,-5.3783,0.2795,-2.1158,-0.9162
9435.0,-4.7574,-18.7596,-5.3783,0.2795,-2.1158,-0.9162
9440.0,-4.7574,-18.7596,-5.3783,0.2795,-2.1158,-0.9162
9445.0,-3.6655,-13.6973,-3.5538,0.2795,-2.1158,-0.9162
9450.0,-3.6655,-13.6973,-3.5538,-1.5219,0.6454,0.6573
9455.0,-3.6655,-13.6973,-3.5538,-1.5219,0.6454,0.6573
9461.0,-3.6655,-13.6973,-3.5538,-1.5219,0.6454,0.6573
9465.0,-3.6655,-13.6973,-3.5538,-1.5219,0.6454,0.6573
9470.0,-3.6655,-13.6973,-3.5538,-1.5219,0.6454,0.6573
9475.0,-7.4825,-9.9268,6.6636,-1.5219,0.6454,0.6573
9480.0,-7.4825,-9.9268,6.6636,-1.4101,0.8977,-0.7709
9485.0,-7.4825,-9.9268,6.6636,-1.4101,0.8977,-0.7709
9491.0,-7.4825,-9.9268,6.6636,-1.4101,0.8977,-0.7709
9495.0,-7.4825,-9.9268,6.6636,-1.4101,0.8977,-0.7709
9500.0,-9.379,-9.4215,6.3698,-1.4101,0.8977,-0.7709
9505.0,-9.379,-9.4215,6.3698,-1.4101,0.8977,-0.7709
9510.0,-9.379,-9.4215,6.3698,-1.4101,0.8977,-0.7709
9515.0,-9.379,-9.4215,6.3698,-0.3326,3.7046,-1.0067
9520.0,-9.379,-9.4215,6.3698,-0.3326,3.7046,-1.0067
9525.0,-9.379,-9.4215,6.3698,-0.3326,3.7046,-1.0067
9530.0,-13.1769,-11.0184,-9.2975,-0.3326,3.7046,-1.0067
9535.0,-13.1769,-11.0184,-9.2975,-0.3326,3.7046,-1.0067
9540.0,-13.1769,-11.0184,-9.2975,-0.3326,3.7046,-1.0067
9545.0,-13.1769,-11.0184,-9.2975,-0.1279,-4.9435,1.1411
9550.0,-13.1769,-11.0184,-9.2975,-0.1279,-4.9435,1.1411
9555.0,-8.4691,-7.4385,-3.5964,-0.1279,-4.9435,1.1411
9560.0,-8.4691,-7.4385,-3.5964,-0.1279,-4.9435,1.1411
9566.0,-8.4691,-7.4385,-3.5964,-0.1279,-4.9435,1.1411
9570.0,-8.4691,-7.4385,-3.5964,-0.1279,-4.9435,1.1411
9576.0,-8.4691,-7.4385,-3.5964,0.2093,-2.2721,-1.7941
9580.0,-6.9222,-6.652,1.9104,0.2093,-2.2721,-1.7941
9585.0,-6.9222,-6.652,1.9104,0.2093,-2.2721,-1.7941
9591.0,-6.9222,-6.652,1.9104,0.2093,-2.2721,-1.7941
9595.0,-6.9222,-6.652,1.9104,0.2093,-2.2721,-1.7941
9600.0,-6.9222,-6.652,1.9104,0.2093,-2.2721,-1.7941
9606.0,-6.9222,-6.652,1.9104,0.1085,-2.5489,0.3385
9610.0,-7.7363,-7.9342,4.3604,0.1085,-2.5489,0.3385
9616.0,-7.7363,-7.9342,4.3604,0.1085,-2.5489,0.3385
9621.0,-7.7363,-7.9342,4.3604,0.1085,-2.5489,0.3385
9625.0,-7.7363,-7.9342,4.3604,0.1085,-2.5489,0.3385
9630.0,-7.7363,-7.9342,4.3604,0.1085,-2.5489,0.3385
9635.0,-8.0045,-9.3976,3.0193,0.1085,-2.5489,0.3385
9640.0,-8.0045,-9.3976,3.0193,-0.0552,0.9032,1.9677
9645.0,-8.0045,-9.3976,3.0193,-0.0552,0.9032,1.9677
9650.0,-8.0045,-9.3976,3.0193,-0.0552,0.9032,1.9677
9655.0,-8.0045,-9.3976,3.0193,-0.0552,0.9032,1.9677
9660.0,-8.0045,-9.3976,3.0193,-0.0552,0.9032,1.9677
9666.0,-5.8446,-8.5349,0.2233,-0.0552,0.9032,1.9677
9670.0,-5.8446,-8.5349,0.2233,-0.123,1.0681,2.8699
9676.0,-5.8446,-8.5349,0.2233,-0.123,1.0681,2.8699
9681.0,-5.8446,-8.5349,0.2233,-0.123,1.0681,2.8699
9685.0,-5.8446,-8.5349,0.2233,-0.123,1.0681,2.8699
9690.0,-2.6406,-7.0476,-4.0135,-0.123,1.0681,2.8699
9695.0,-2.6406,-7.0476,-4.0135,-0.123,1.0681,2.8699
9700.0,-2.6406,-7.0476,-4.0135,-0.123,1.0681,2.8699
9705.0,-2.6406,-7.0476,-4.0135,-0.6294,0.5324,1.4765
9710.0,-2.6406,-7.0476,-4.0135,-0.6294,0.5324,1.4765
9716.0,-2.4251,-8.4014,-3.44,-0.6294,0.5324,1.4765
9721.0,-2.4251,-8.4014,-3.44,-0.6294,0.5324,1.4765
9725.0,-2.4251,-8.4014,-3.44,-0.6294,0.5324,1.4765
9730.0,-2.4251,-8.4014,-3.44,-0.6294,0.5324,1.4765
9736.0,-2.4251,-8.4014,-3.44,-0.5482,-0.6906,0.4362
9740.0,-2.8418,-7.4671,-0.7151,-0.5482,-0.6906,0.4362
9745.0,-2.8418,-7.4671,-0.7151,-0.5482,-0.6906,0.4362
9750.0,-2.8418,-7.4671,-0.7151,-0.5482,-0.6906,0.4362
9755.0,-2.8418,-7.4671,-0.7151,-0.5482,-0.6906,0.4362
9760.0,-2.8418,-7.4671,-0.7151,-0.5482,-0.6906,0.4362
9766.0,-2.8418,-7.4671,-0.7151,-0.5482,-0.6906,0.4362
9771.0,-2.2144,-5.3887,-0.9947,-0.1474,-1.0815,-0.0329
9776.0,-2.2144,-5.3887,-0.9947,-0.1474,-1.0815,-0.0329
9780.0,-2.2144,-5.3887,-0.9947,-0.1474,-1.0815,-0.0329
9785.0,-2.2144,-5.3887,-0.9947,-0.1474,-1.0815,-0.0329
9790.0,-2.2144,-5.3887,-0.9947,-0.1474,-1.0815,-0.0329
9795.0,-2.2144,-5.3887,-0.9947,-0.1474,-1.0815,-0.0329
9801.0,-6.7258,-6.4851,-2.478,0.2759,-1.0266,-0.4667
9806.0,-6.7258,-6.4851,-2.478,0.2759,-1.0266,-0.4667
9810.0,-6.7258,-6.4851,-2.478,0.2759,-1.0266,-0.4667
9815.0,-6.7258,-6.4851,-2.478,0.2759,-1.0266,-0.4667
9820.0,-6.7258,-6.4851,-2.478,0.2759,-1.0266,-0.4667
9826.0,-6.1032,-4.5212,0.1474,0.2759,-1.0266,-0.4667
9831.0,-6.1032,-4.5212,0.1474,0.1232,9.0E-4,-0.452
9835.0,-6.1032,-4.5212,0.1474,0.1232,9.0E-4,-0.452
9840.0,-6.1032,-4.5212,0.1474,0.1232,9.0E-4,-0.452
9845.0,-6.1032,-4.5212,0.1474,0.1232,9.0E-4,-0.452
9850.0,-4.0965,-3.9587,0.9436,0.1232,9.0E-4,-0.452
9856.0,-4.0965,-3.9587,0.9436,0.1232,9.0E-4,-0.452
9860.0,-4.0965,-3.9587,0.9436,-0.1071,0.905,0.066
9865.0,-4.0965,-3.9587,0.9436,-0.1071,0.905,0.066
9870.0,-4.0965,-3.9587,0.9436,-0.1071,0.905,0.066
9875.0,-3.0956,-3.0912,-1.0753,-0.1071,0.905,0.066
9880.0,-3.0956,-3.0912,-1.0753,-0.1071,0.905,0.066
9885.0,-3.0956,-3.0912,-1.0753,-0.1071,0.905,0.066
9891.0,-3.0956,-3.0912,-1.0753,-0.0839,0.4915,0.0526
9895.0,-3.0956,-3.0912,-1.0753,-0.0839,0.4915,0.0526
9900.0,-7.5639,-7.9247,-1.5397,-0.0839,0.4915,0.0526
9905.0,-7.5639,-7.9247,-1.5397,-0.0839,0.4915,0.0526
9910.0,-7.5639,-7.9247,-1.5397,-0.0839,0.4915,0.0526
9915.0,-7.5639,-7.9247,-1.5397,-0.0839,0.4915,0.0526
9920.0,-7.5639,-7.9247,-1.5397,-0.0839,0.4915,0.0526
9925.0,-10.8302,-9.2022,-3.3216,0.0914,0.2862,-0.1307
9930.0,-10.8302,-9.2022,-3.3216,0.0914,0.2862,-0.1307
9935.0,-10.8302,-9.2022,-3.3216,0.0914,0.2862,-0.1307
9940.0,-10.8302,-9.2022,-3.3216,0.0914,0.2862,-0.1307
9945.0,-10.8302,-9.2022,-3.3216,0.0914,0.2862,-0.1307
9950.0,-10.8302,-9.2022,-3.3216,0.0914,0.2862,-0.1307
9955.0,-4.4701,-6.6091,-2.3927,0.2924,0.9814,-0.4428
9960.0,-4.4701,-6.6091,-2.3927,0.2924,0.9814,-0.4428
9965.0,-4.4701,-6.6091,-2.3927,0.2924,0.9814,-0.4428
9970.0,-4.4701,-6.6091,-2.3927,0.2924,0.9814,-0.4428
9975.0,-4.4701,-6.6091,-2.3927,0.2924,0.9814,-0.4428
9980.0,-2.4586,-7.8294,-2.7007,0.2924,0.9814,-0.4428
9985.0,-2.4586,-7.8294,-2.7007,0.2679,2.4786,-0.3341
9990.0,-2.4586,-7.8294,-2.7007,0.2679,2.4786,-0.3341
9995.0,-2.4586,-7.8294,-2.7007,0.2679,2.4786,-0.3341
10000.0,-2.4586,-7.8294,-2.7007,0.2679,2.4786,-0.3341
10005.0,-4.585,-11.8239,-5.1319,0.2679,2.4786,-0.3341
10011.0,-4.585,-11.8239,-5.1319,0.2679,2.4786,-0.3341
10015.0,-4.585,-11.8239,-5.1319,0.2679,2.4786,-0.3341
10020.0,-4.585,-11.8239,-5.1319,0.3254,2.8183,-1.4538
10025.0,-4.585,-11.8239,-5.1319,0.3254,2.8183,-1.4538
10030.0,-4.585,-11.8239,-5.1319,0.3254,2.8183,-1.4538
10035.0,-8.0572,-11.0994,-3.8381,0.3254,2.8183,-1.4538
10040.0,-8.0572,-11.0994,-3.8381,0.3254,2.8183,-1.4538
10045.0,-8.0572,-11.0994,-3.8381,0.3254,2.8183,-1.4538
10050.0,-8.0572,-11.0994,-3.8381,0.6656,2.2562,-2.9199
10055.0,-8.0572,-11.0994,-3.8381,0.6656,2.2562,-2.9199
10060.0,-7.0036,-9.9983,-3.5016,0.6656,2.2562,-2.9199
10065.0,-7.0036,-9.9983,-3.5016,0.6656,2.2562,-2.9199
10070.0,-7.0036,-9.9983,-3.5016,0.6656,2.2562,-2.9199
10075.0,-7.0036,-9.9983,-3.5016,0.6656,2.2562,-2.9199
10080.0,-7.0036,-9.9983,-3.5016,0.6131,2.7443,-3.2003
10085.0,-7.7842,-9.6598,-0.8667,0.6131,2.7443,-3.2003
10090.0,-7.7842,-9.6598,-0.8667,0.6131,2.7443,-3.2003
10095.0,-7.7842,-9.6598,-0.8667,0.6131,2.7443,-3.2003
10100.0,-7.7842,-9.6598,-0.8667,0.6131,2.7443,-3.2003
10105.0,-7.7842,-9.6598,-0.8667,0.6131,2.7443,-3.2003
10110.0,-7.7842,-9.6598,-0.8667,0.015,3.0931,-1.9144
10115.0,-8.5074,-9.2451,-0.5824,0.015,3.0931,-1.9144
10121.0,-8.5074,-9.2451,-0.5824,0.015,3.0931,-1.9144
10126.0,-8.5074,-9.2451,-0.5824,0.015,3.0931,-1.9144
10130.0,-8.5074,-9.2451,-0.5824,0.015,3.0931,-1.9144
10135.0,-8.5074,-9.2451,-0.5824,0.015,3.0931,-1.9144
10140.0,-7.8321,-10.3462,-2.4733,-0.0277,1.5996,-1.788
10145.0,-7.8321,-10.3462,-2.4733,-0.0277,1.5996,-1.788
10150.0,-7.8321,-10.3462,-2.4733,-0.0277,1.5996,-1.788
10155.0,-7.8321,-10.3462,-2.4733,-0.0277,1.5996,-1.788
10160.0,-7.8321,-10.3462,-2.4733,-0.0277,1.5996,-1.788
10165.0,-7.0467,-9.4215,-6.4351,-0.0277,1.5996,-1.788
10170.0,-7.0467,-9.4215,-6.4351,-0.0277,1.5996,-1.788
10175.0,-7.0467,-9.4215,-6.4351,1.1464,-0.9349,-1.9963
10180.0,-7.0467,-9.4215,-6.4351,1.1464,-0.9349,-1.9963
10185.0,-7.0467,-9.4215,-6.4351,1.1464,-0.9349,-1.9963
10191.0,-7.0467,-9.4215,-6.4351,1.1464,-0.9349,-1.9963
10195.0,-6.132,-8.9019,-6.4825,1.1464,-0.9349,-1.9963
10200.0,-6.132,-8.9019,-6.4825,1.1464,-0.9349,-1.9963
10205.0,-6.132,-8.9019,-6.4825,1.5593,-1.5305,-1.0396
10211.0,-6.132,-8.9019,-6.4825,1.5593,-1.5305,-1.0396
10216.0,-6.132,-8.9019,-6.4825,1.5593,-1.5305,-1.0396
10220.0,-5.1214,-7.1477,-5.3688,1.5593,-1.5305,-1.0396
10225.0,-5.1214,-7.1477,-5.3688,1.5593,-1.5305,-1.0396
10231.0,-5.1214,-7.1477,-5.3688,1.5593,-1.5305,-1.0396
10236.0,-5.1214,-7.1477,-5.3688,0.5086,-1.1793,0.4631
10240.0,-5.1214,-7.1477,-5.3688,0.5086,-1.1793,0.4631
10245.0,-3.6942,-4.3591,-4.6153,0.5086,-1.1793,0.4631
10250.0,-3.6942,-4.3591,-4.6153,0.5086,-1.1793,0.4631
10255.0,-3.6942,-4.3591,-4.6153,0.5086,-1.1793,0.4631
10260.0,-3.6942,-4.3591,-4.6153,0.5086,-1.1793,0.4631
10265.0,-3.6942,-4.3591,-4.6153,-0.0381,-1.4902,1.2047
10270.0,-3.6942,-4.3591,-4.6153,-0.0381,-1.4902,1.2047
10275.0,-3.0477,-2.2951,-1.7908,-0.0381,-1.4902,1.2047
10280.0,-3.0477,-2.2951,-1.7908,-0.0381,-1.4902,1.2047
10285.0,-3.0477,-2.2951,-1.7908,-0.0381,-1.4902,1.2047
10290.0,-3.0477,-2.2951,-1.7908,-0.0381,-1.4902,1.2047
10295.0,-3.0477,-2.2951,-1.7908,-0.5616,-0.8634,1.8791
10301.0,-3.335,-0.9413,-0.4734,-0.5616,-0.8634,1.8791
10305.0,-3.335,-0.9413,-0.4734,-0.5616,-0.8634,1.8791
10310.0,-3.335,-0.9413,-0.4734,-0.5616,-0.8634,1.8791
10315.0,-3.335,-0.9413,-0.4734,-0.5616,-0.8634,1.8791
10323.0,-3.335,-0.9413,-0.4734,-0.5616,-0.8634,1.8791
10325.0,-3.335,-0.9413,-0.4734,-0.9019,-0.6295,2.493
10331.0,-4.4653,-1.5515,-1.0468,-0.9019,-0.6295,2.493
10335.0,-4.4653,-1.5515,-1.0468,-0.9019,-0.6295,2.493
10340.0,-4.4653,-1.5515,-1.0468,-0.9019,-0.6295,2.493
10345.0,-4.4653,-1.5515,-1.0468,-0.9019,-0.6295,2.493
10350.0,-4.4653,-1.5515,-1.0468,-0.9019,-0.6295,2.493
10355.0,-6.2565,-4.1875,-2.5301,-1.0851,-1.4389,3.033
10360.0,-6.2565,-4.1875,-2.5301,-1.0851,-1.4389,3.033
10365.0,-6.2565,-4.1875,-2.5301,-1.0851,-1.4389,3.033
10370.0,-6.2565,-4.1875,-2.5301,-1.0851,-1.4389,3.033
10375.0,-6.2565,-4.1875,-2.5301,-1.0851,-1.4389,3.033
10380.0,-4.9538,-8.2536,-3.44,-1.0851,-1.4389,3.033
10385.0,-4.9538,-8.2536,-3.44,-0.7772,-1.2562,2.6298
10390.0,-4.9538,-8.2536,-3.44,-0.7772,-1.2562,2.6298
10396.0,-4.9538,-8.2536,-3.44,-0.7772,-1.2562,2.6298
10400.0,-4.9538,-8.2536,-3.44,-0.7772,-1.2562,2.6298
10405.0,-4.9538,-8.2536,-3.44,-0.7772,-1.2562,2.6298
10410.0,-3.0812,-9.5931,-2.1652,-0.7772,-1.2562,2.6298
10416.0,-3.0812,-9.5931,-2.1652,-0.484,0.5751,2.1259
10420.0,-3.0812,-9.5931,-2.1652,-0.484,0.5751,2.1259
10425.0,-3.0812,-9.5931,-2.1652,-0.484,0.5751,2.1259
10430.0,-3.0812,-9.5931,-2.1652,-0.484,0.5751,2.1259
10435.0,-1.0458,-6.9618,-4.6485,-0.484,0.5751,2.1259
10440.0,-1.0458,-6.9618,-4.6485,-0.484,0.5751,2.1259
10446.0,-1.0458,-6.9618,-4.6485,-0.484,0.5751,2.1259
10451.0,-1.0458,-6.9618,-4.6485,-0.6532,1.1402,1.2242
10455.0,-1.0458,-6.9618,-4.6485,-0.6532,1.1402,1.2242
10460.0,-1.0458,-6.9618,-4.6485,-0.6532,1.1402,1.2242
10465.0,-4.1684,-4.3639,-6.8948,-0.6532,1.1402,1.2242
10471.0,-4.1684,-4.3639,-6.8948,-0.6532,1.1402,1.2242
10475.0,-4.1684,-4.3639,-6.8948,-0.6532,1.1402,1.2242
10480.0,-4.1684,-4.3639,-6.8948,-0.2763,-0.5684,0.0068
10487.0,-4.1684,-4.3639,-6.8948,-0.2763,-0.5684,0.0068
10491.0,-3.4979,-6.3898,-0.5634,-0.2763,-0.5684,0.0068
10496.0,-3.4979,-6.3898,-0.5634,-0.2763,-0.5684,0.0068
10501.0,-3.4979,-6.3898,-0.5634,-0.2763,-0.5684,0.0068
10506.0,-3.4979,-6.3898,-0.5634,-0.2763,-0.5684,0.0068
10510.0,-3.4979,-6.3898,-0.5634,0.0688,-0.6148,-0.5173
10515.0,-3.4979,-6.3898,-0.5634,0.0688,-0.6148,-0.5173
10521.0,-3.4979,-6.3898,-0.5634,0.0688,-0.6148,-0.5173
10525.0,-1.563,-7.4385,-1.0942,0.0688,-0.6148,-0.5173
10530.0,-1.563,-7.4385,-1.0942,0.0688,-0.6148,-0.5173
10535.0,-1.563,-7.4385,-1.0942,0.0688,-0.6148,-0.5173
10540.0,-1.563,-7.4385,-1.0942,-0.0485,-1.2727,-0.6279
10545.0,-1.563,-7.4385,-1.0942,-0.0485,-1.2727,-0.6279
10551.0,-1.563,-7.4385,-1.0942,-0.0485,-1.2727,-0.6279
10555.0,-4.0822,-10.5798,-2.8619,-0.0485,-1.2727,-0.6279
10560.0,-4.0822,-10.5798,-2.8619,-0.0485,-1.2727,-0.6279
10565.0,-4.0822,-10.5798,-2.8619,-0.0485,-1.2727,-0.6279
10570.0,-4.0822,-10.5798,-2.8619,-0.0485,-1.2727,-0.6279
10575.0,-4.0822,-10.5798,-2.8619,-0.4803,0.1658,-1.5387
10581.0,-6.8599,-18.712,-8.1507,-0.4803,0.1658,-1.5387
10585.0,-6.8599,-18.712,-8.1507,-0.4803,0.1658,-1.5387
10590.0,-6.8599,-18.712,-8.1507,-0.4803,0.1658,-1.5387
10596.0,-6.8599,-18.712,-8.1507,-0.4803,0.1658,-1.5387
10600.0,-6.8599,-18.712,-8.1507,-0.4803,0.1658,-1.5387
10606.0,-6.8599,-18.712,-8.1507,-1.2995,-1.6692,0.1516
10610.0,-8.0764,-10.9039,8.6256,-1.2995,-1.6692,0.1516
10615.0,-8.0764,-10.9039,8.6256,-1.2995,-1.6692,0.1516
10620.0,-8.0764,-10.9039,8.6256,-1.2995,-1.6692,0.1516
10626.0,-8.0764,-10.9039,8.6256,-1.2995,-1.6692,0.1516
10630.0,-8.0764,-10.9039,8.6256,-1.2995,-1.6692,0.1516
10636.0,-7.2287,-7.2526,7.1612,-0.9874,2.1219,-0.1368
10640.0,-7.2287,-7.2526,7.1612,-0.9874,2.1219,-0.1368
10645.0,-7.2287,-7.2526,7.1612,-0.9874,2.1219,-0.1368
10650.0,-7.2287,-7.2526,7.1612,-0.9874,2.1219,-0.1368
10655.0,-7.2287,-7.2526,7.1612,-0.9874,2.1219,-0.1368
10661.0,-11.3714,-9.4262,2.3369,-0.9874,2.1219,-0.1368
10665.0,-11.3714,-9.4262,2.3369,-0.5909,3.8555,0.0275
10670.0,-11.3714,-9.4262,2.3369,-0.5909,3.8555,0.0275
10675.0,-11.3714,-9.4262,2.3369,-0.5909,3.8555,0.0275
10681.0,-11.3714,-9.4262,2.3369,-0.5909,3.8555,0.0275
10686.0,-16.8311,-13.4304,-22.3584,-0.5909,3.8555,0.0275
10691.0,-16.8311,-13.4304,-22.3584,-0.5909,3.8555,0.0275
10695.0,-16.8311,-13.4304,-22.3584,0.3944,-9.5946,-0.4428
10701.0,-16.8311,-13.4304,-22.3584,0.3944,-9.5946,-0.4428
10706.0,-16.8311,-13.4304,-22.3584,0.3944,-9.5946,-0.4428
10711.0,-16.8311,-13.4304,-22.3584,0.3944,-9.5946,-0.4428
10715.0,-5.155,-7.4671,6.5736,0.3944,-9.5946,-0.4428
10720.0,-5.155,-7.4671,6.5736,0.3944,-9.5946,-0.4428
10725.0,-5.155,-7.4671,6.5736,1.0981,-2.335,-3.4043
10730.0,-5.155,-7.4671,6.5736,1.0981,-2.335,-3.4043
10736.0,-5.155,-7.4671,6.5736,1.0981,-2.335,-3.4043
10740.0,-4.4797,-5.117,5.6779,1.0981,-2.335,-3.4043
10745.0,-4.4797,-5.117,5.6779,1.0981,-2.335,-3.4043
10750.0,-4.4797,-5.117,5.6779,1.0981,-2.335,-3.4043
10755.0,-4.4797,-5.117,5.6779,0.8892,-2.1597,0.4832
10761.0,-4.4797,-5.117,5.6779,0.8892,-2.1597,0.4832
10765.0,-4.4797,-5.117,5.6779,0.8892,-2.1597,0.4832
10772.0,-3.6416,-5.5175,4.5358,0.8892,-2.1597,0.4832
10776.0,-3.6416,-5.5175,4.5358,0.8892,-2.1597,0.4832
10780.0,-3.6416,-5.5175,4.5358,0.8892,-2.1597,0.4832
10785.0,-3.6416,-5.5175,4.5358,-0.0533,1.8085,1.9982
10790.0,-3.6416,-5.5175,4.5358,-0.0533,1.8085,1.9982
10795.0,-5.3322,-8.8352,2.043,-0.0533,1.8085,1.9982
10800.0,-5.3322,-8.8352,2.043,-0.0533,1.8085,1.9982
10805.0,-5.3322,-8.8352,2.043,-0.0533,1.8085,1.9982
10810.0,-5.3322,-8.8352,2.043,-0.0533,1.8085,1.9982
10815.0,-5.3322,-8.8352,2.043,-0.0533,1.8085,1.9982
10820.0,-6.0314,-11.4855,0.4318,-0.4193,2.2813,2.6897
10825.0,-6.0314,-11.4855,0.4318,-0.4193,2.2813,2.6897
10830.0,-6.0314,-11.4855,0.4318,-0.4193,2.2813,2.6897
10835.0,-6.0314,-11.4855,0.4318,-0.4193,2.2813,2.6897
10841.0,-6.0314,-11.4855,0.4318,-0.4193,2.2813,2.6897
10845.0,-6.0314,-11.4855,0.4318,-0.8725,0.3454,2.5968
10850.0,-2.7124,-10.7276,-6.4351,-0.8725,0.3454,2.5968
10855.0,-2.7124,-10.7276,-6.4351,-0.8725,0.3454,2.5968
10861.0,-2.7124,-10.7276,-6.4351,-0.8725,0.3454,2.5968
10866.0,-2.7124,-10.7276,-6.4351,-0.8725,0.3454,2.5968
10870.0,-2.7124,-10.7276,-6.4351,-0.8725,0.3454,2.5968
10875.0,-2.0898,-8.6492,-4.9992,-0.8725,0.3454,2.5968
10880.0,-2.0898,-8.6492,-4.9992,-1.1779,0.2147,0.3971
10885.0,-2.0898,-8.6492,-4.9992,-1.1779,0.2147,0.3971
10891.0,-2.0898,-8.6492,-4.9992,-1.1779,0.2147,0.3971
10896.0,-2.0898,-8.6492,-4.9992,-1.1779,0.2147,0.3971
10900.0,-2.0898,-8.6492,-4.9992,-1.1779,0.2147,0.3971
10905.0,-2.0898,-8.6492,-4.9992,-1.1779,0.2147,0.3971
10910.0,-2.0898,-8.6492,-4.9992,-1.1779,0.2147,0.3971
10916.0,-3.9289,-6.8331,-1.1084,-0.7118,-0.6765,-0.306
10920.0,-3.9289,-6.8331,-1.1084,-0.7118,-0.6765,-0.306
10926.0,-3.9289,-6.8331,-1.1084,-0.7118,-0.6765,-0.306
10931.0,-3.9289,-6.8331,-1.1084,-0.7118,-0.6765,-0.306
