time in milliseconds,acceleration_x,acceleration_y,acceleration_z,Roll,Pitch,Yaw
7.0,-4.3456,-2.3571,2.6449,0.1979,1.6228,-1.6274
12.0,-4.3456,-2.3571,2.6449,-0.0953,2.4616,-1.8357
17.0,-4.3456,-2.3571,2.6449,-0.0953,2.4616,-1.8357
22.0,-4.3456,-2.3571,2.6449,-0.0953,2.4616,-1.8357
27.0,-4.3456,-2.3571,2.6449,-0.0953,2.4616,-1.8357
32.0,-3.4787,-2.3285,0.7493,-0.0953,2.4616,-1.8357
38.0,-3.4787,-2.3285,0.7493,-0.0953,2.4616,-1.8357
42.0,-3.4787,-2.3285,0.7493,-0.0953,2.4616,-1.8357
47.0,-3.4787,-2.3285,0.7493,-0.1607,3.3516,-1.9743
52.0,-3.4787,-2.3285,0.7493,-0.1607,3.3516,-1.9743
57.0,-3.4787,-2.3285,0.7493,-0.1607,3.3516,-1.9743
62.0,-3.2728,-3.115,0.4507,-0.1607,3.3516,-1.9743
67.0,-3.2728,-3.115,0.4507,-0.1607,3.3516,-1.9743
72.0,-3.2728,-3.115,0.4507,-0.1607,3.3516,-1.9743
78.0,-3.2728,-3.115,0.4507,-0.7306,4.8195,-1.584
82.0,-3.2728,-3.115,0.4507,-0.7306,4.8195,-1.584
87.0,-2.9519,-2.8337,-1.2079,-0.7306,4.8195,-1.584
93.0,-2.9519,-2.8337,-1.2079,-0.7306,4.8195,-1.584
97.0,-2.9519,-2.8337,-1.2079,-0.7306,4.8195,-1.584
102.0,-2.9519,-2.8337,-1.2079,-0.7306,4.8195,-1.584
107.0,-2.9519,-2.8337,-1.2079,-0.7306,4.8195,-1.584
112.0,-2.9519,-2.8337,-1.2079,-1.4618,6.0859,0.0427
117.0,-3.9289,-3.3581,-2.824,-1.4618,6.0859,0.0427
122.0,-3.9289,-3.3581,-2.824,-1.4618,6.0859,0.0427
127.0,-3.9289,-3.3581,-2.824,-1.4618,6.0859,0.0427
132.0,-3.9289,-3.3581,-2.824,-1.4618,6.0859,0.0427
137.0,-3.9289,-3.3581,-2.824,-1.4618,6.0859,0.0427
142.0,-4.3935,-2.8909,-2.0752,-1.2083,7.4377,0.6157
147.0,-4.3935,-2.8909,-2.0752,-1.2083,7.4377,0.6157
152.0,-4.3935,-2.8909,-2.0752,-1.2083,7.4377,0.6157
157.0,-4.3935,-2.8909,-2.0752,-1.2083,7.4377,0.6157
162.0,-4.3935,-2.8909,-2.0752,-1.2083,7.4377,0.6157
167.0,-4.5276,-6.2802,-3.6959,-1.2083,7.4377,0.6157
172.0,-4.5276,-6.2802,-3.6959,-2.8766,9.2111,0.9352
177.0,-4.5276,-6.2802,-3.6959,-2.8766,9.2111,0.9352
182.0,-4.5276,-6.2802,-3.6959,-2.8766,9.2111,0.9352
187.0,-4.5276,-6.2802,-3.6959,-2.8766,9.2111,0.9352
192.0,-4.5276,-6.2802,-3.6959,-2.8766,9.2111,0.9352
197.0,-11.2612,-10.2604,-4.1177,-2.8766,9.2111,0.9352
202.0,-11.2612,-10.2604,-4.1177,-4.1075,9.4976,1.4154
207.0,-11.2612,-10.2604,-4.1177,-4.1075,9.4976,1.4154
212.0,-11.2612,-10.2604,-4.1177,-4.1075,9.4976,1.4154
217.0,-11.2612,-10.2604,-4.1177,-4.1075,9.4976,1.4154
222.0,-14.2593,-6.4613,-6.0276,-4.1075,9.4976,1.4154
228.0,-14.2593,-6.4613,-6.0276,-4.1075,9.4976,1.4154
232.0,-14.2593,-6.4613,-6.0276,-2.6072,6.9203,2.1399
237.0,-14.2593,-6.4613,-6.0276,-2.6072,6.9203,2.1399
242.0,-14.2593,-6.4613,-6.0276,-2.6072,6.9203,2.1399
247.0,-14.2593,-6.4613,-6.0276,-2.6072,6.9203,2.1399
252.0,-16.0983,-9.9554,-4.3499,-2.6072,6.9203,2.1399
257.0,-16.0983,-9.9554,-4.3499,-2.6072,6.9203,2.1399
262.0,-16.0983,-9.9554,-4.3499,-3.3329,3.8886,2.1564
267.0,-16.0983,-9.9554,-4.3499,-3.3329,3.8886,2.1564
272.0,-16.0983,-9.9554,-4.3499,-3.3329,3.8886,2.1564
277.0,-16.333,-10.8277,-6.0655,-3.3329,3.8886,2.1564
282.0,-16.333,-10.8277,-6.0655,-3.3329,3.8886,2.1564
287.0,-16.333,-10.8277,-6.0655,-3.3329,3.8886,2.1564
292.0,-16.333,-10.8277,-6.0655,-3.3329,3.8886,2.1564
297.0,-16.333,-10.8277,-6.0655,-4.493,0.1482,2.4936
302.0,-16.333,-10.8277,-6.0655,-4.493,0.1482,2.4936
307.0,-18.6318,-10.5607,-8.3497,-4.493,0.1482,2.4936
312.0,-18.6318,-10.5607,-8.3497,-4.493,0.1482,2.4936
317.0,-18.6318,-10.5607,-8.3497,-4.493,0.1482,2.4936
322.0,-18.6318,-10.5607,-8.3497,-4.493,0.1482,2.4936
327.0,-18.6318,-10.5607,-8.3497,-3.402,-1.9422,2.4044
332.0,-18.5361,-9.9077,-8.7431,-3.402,-1.9422,2.4044
337.0,-18.5361,-9.9077,-8.7431,-3.402,-1.9422,2.4044
342.0,-18.5361,-9.9077,-8.7431,-3.402,-1.9422,2.4044
347.0,-18.5361,-9.9077,-8.7431,-3.402,-1.9422,2.4044
352.0,-18.5361,-9.9077,-8.7431,-3.402,-1.9422,2.4044
357.0,-18.5361,-9.9077,-8.7431,-3.402,-1.9422,2.4044
362.0,-18.4307,-8.9877,-7.127,-2.1436,-3.6844,2.8521
367.0,-18.4307,-8.9877,-7.127,-2.1436,-3.6844,2.8521
372.0,-18.4307,-8.9877,-7.127,-2.1436,-3.6844,2.8521
378.0,-18.4307,-8.9877,-7.127,-2.1436,-3.6844,2.8521
382.0,-18.4307,-8.9877,-7.127,-2.1436,-3.6844,2.8521
387.0,-14.3359,-6.2039,-7.2408,-2.1436,-3.6844,2.8521
392.0,-14.3359,-6.2039,-7.2408,-1.8161,-4.8365,2.9914
397.0,-14.3359,-6.2039,-7.2408,-1.8161,-4.8365,2.9914
402.0,-14.3359,-6.2039,-7.2408,-1.8161,-4.8365,2.9914
407.0,-14.3359,-6.2039,-7.2408,-1.8161,-4.8365,2.9914
412.0,-14.3359,-6.2039,-7.2408,-1.8161,-4.8365,2.9914
417.0,-11.4097,-3.3819,-6.3451,-1.8161,-4.8365,2.9914
422.0,-11.4097,-3.3819,-6.3451,-2.1894,-4.6453,1.8442
427.0,-11.4097,-3.3819,-6.3451,-2.1894,-4.6453,1.8442
432.0,-11.4097,-3.3819,-6.3451,-2.1894,-4.6453,1.8442
437.0,-11.4097,-3.3819,-6.3451,-2.1894,-4.6453,1.8442
442.0,-10.5189,-6.3326,-5.5015,-2.1894,-4.6453,1.8442
447.0,-10.5189,-6.3326,-5.5015,-2.1894,-4.6453,1.8442
452.0,-10.5189,-6.3326,-5.5015,0.5375,-1.3142,1.865
457.0,-10.5189,-6.3326,-5.5015,0.5375,-1.3142,1.865
462.0,-10.5189,-6.3326,-5.5015,0.5375,-1.3142,1.865
467.0,-10.5189,-6.3326,-5.5015,0.5375,-1.3142,1.865
472.0,-0.95,-7.7436,-2.4875,0.5375,-1.3142,1.865
477.0,-0.95,-7.7436,-2.4875,0.5375,-1.3142,1.865
482.0,-0.95,-7.7436,-2.4875,0.5375,-1.3142,1.865
487.0,-0.95,-7.7436,-2.4875,2.584,2.1836,1.9297
492.0,-0.95,-7.7436,-2.4875,2.584,2.1836,1.9297
498.0,-6.7258,-7.4528,-2.0562,2.584,2.1836,1.9297
502.0,-6.7258,-7.4528,-2.0562,2.584,2.1836,1.9297
508.0,-6.7258,-7.4528,-2.0562,2.584,2.1836,1.9297
512.0,-6.7258,-7.4528,-2.0562,2.584,2.1836,1.9297
517.0,-6.7258,-7.4528,-2.0562,1.5491,1.2924,1.6408
523.0,-9.4652,-7.1286,-3.222,1.5491,1.2924,1.6408
527.0,-9.4652,-7.1286,-3.222,1.5491,1.2924,1.6408
532.0,-9.4652,-7.1286,-3.222,1.5491,1.2924,1.6408
537.0,-9.4652,-7.1286,-3.222,1.5491,1.2924,1.6408
543.0,-9.4652,-7.1286,-3.222,1.5491,1.2924,1.6408
547.0,-9.4652,-7.1286,-3.222,1.2492,0.4103,1.653
552.0,-8.9911,-5.3935,-0.08,1.2492,0.4103,1.653
557.0,-8.9911,-5.3935,-0.08,1.2492,0.4103,1.653
562.0,-8.9911,-5.3935,-0.08,1.2492,0.4103,1.653
567.0,-8.9911,-5.3935,-0.08,1.2492,0.4103,1.653
572.0,-8.9911,-5.3935,-0.08,1.2492,0.4103,1.653
577.0,-8.8235,-9.0735,-0.3691,1.73,0.8837,1.3244
583.0,-8.8235,-9.0735,-0.3691,1.73,0.8837,1.3244
587.0,-8.8235,-9.0735,-0.3691,1.73,0.8837,1.3244
592.0,-8.8235,-9.0735,-0.3691,1.73,0.8837,1.3244
597.0,-8.8235,-9.0735,-0.3691,1.73,0.8837,1.3244
602.0,-8.8235,-9.0735,-0.3691,1.73,0.8837,1.3244
607.0,-1.1416,-8.0439,2.2847,1.4679,1.9527,0.9126
612.0,-1.1416,-8.0439,2.2847,1.4679,1.9527,0.9126
617.0,-1.1416,-8.0439,2.2847,1.4679,1.9527,0.9126
622.0,-1.1416,-8.0439,2.2847,1.4679,1.9527,0.9126
627.0,-1.1416,-8.0439,2.2847,1.4679,1.9527,0.9126
632.0,1.5787,-11.6094,5.7111,1.4679,1.9527,0.9126
638.0,1.5787,-11.6094,5.7111,-0.5211,3.0376,1.0195
642.0,1.5787,-11.6094,5.7111,-0.5211,3.0376,1.0195
647.0,1.5787,-11.6094,5.7111,-0.5211,3.0376,1.0195
652.0,1.5787,-11.6094,5.7111,-0.5211,3.0376,1.0195
658.0,0.6208,-9.4548,1.7919,-0.5211,3.0376,1.0195
662.0,0.6208,-9.4548,1.7919,-0.5211,3.0376,1.0195
667.0,0.6208,-9.4548,1.7919,0.7342,3.2838,0.5424
673.0,0.6208,-9.4548,1.7919,0.7342,3.2838,0.5424
678.0,0.6208,-9.4548,1.7919,0.7342,3.2838,0.5424
682.0,0.6208,-9.4548,1.7919,0.7342,3.2838,0.5424
687.0,-4.7048,-5.4793,-2.7529,0.7342,3.2838,0.5424
692.0,-4.7048,-5.4793,-2.7529,0.7342,3.2838,0.5424
697.0,-4.7048,-5.4793,-2.7529,0.7342,3.2838,0.5424
704.0,-4.7048,-5.4793,-2.7529,0.4771,1.9277,1.5266
708.0,-4.7048,-5.4793,-2.7529,0.4771,1.9277,1.5266
712.0,-9.7574,-5.3887,4.1946,0.4771,1.9277,1.5266
718.0,-9.7574,-5.3887,4.1946,0.4771,1.9277,1.5266
722.0,-9.7574,-5.3887,4.1946,0.4771,1.9277,1.5266
727.0,-9.7574,-5.3887,4.1946,0.4771,1.9277,1.5266
732.0,-9.7574,-5.3887,4.1946,0.576,0.0523,1.507
737.0,-9.7574,-5.3887,4.1946,0.576,0.0523,1.507
742.0,-9.6137,-6.1133,4.3462,0.576,0.0523,1.507
747.0,-9.6137,-6.1133,4.3462,0.576,0.0523,1.507
752.0,-9.6137,-6.1133,4.3462,0.576,0.0523,1.507
757.0,-9.6137,-6.1133,4.3462,0.576,0.0523,1.507
762.0,-9.6137,-6.1133,4.3462,0.576,0.0523,1.507
767.0,-2.0563,-7.3765,5.4504,-2.0721,-0.0552,0.7801
772.0,-2.0563,-7.3765,5.4504,-2.0721,-0.0552,0.7801
778.0,-2.0563,-7.3765,5.4504,-2.0721,-0.0552,0.7801
782.0,-2.0563,-7.3765,5.4504,-2.0721,-0.0552,0.7801
788.0,-2.0563,-7.3765,5.4504,-2.0721,-0.0552,0.7801
792.0,-2.0563,-7.3765,5.4504,-2.0721,-0.0552,0.7801
797.0,-3.3734,-7.5433,8.981,-2.157,2.7475,2.1777
802.0,-3.3734,-7.5433,8.981,-2.157,2.7475,2.1777
807.0,-3.3734,-7.5433,8.981,-2.157,2.7475,2.1777
812.0,-3.3734,-7.5433,8.981,-2.157,2.7475,2.1777
818.0,-3.3734,-7.5433,8.981,-2.157,2.7475,2.1777
822.0,-2.6358,-10.7562,-3.8144,-2.157,2.7475,2.1777
827.0,-2.6358,-10.7562,-3.8144,-1.4856,2.4457,3.7031
832.0,-2.6358,-10.7562,-3.8144,-1.4856,2.4457,3.7031
837.0,-2.6358,-10.7562,-3.8144,-1.4856,2.4457,3.7031
842.0,-2.6358,-10.7562,-3.8144,-1.4856,2.4457,3.7031
847.0,-2.6358,-10.7562,-3.8144,-1.4856,2.4457,3.7031
852.0,-1.3092,-12.0242,-3.8286,-1.4856,2.4457,3.7031
857.0,-1.3092,-12.0242,-3.8286,-0.7752,-2.0601,3.0269
862.0,-1.3092,-12.0242,-3.8286,-0.7752,-2.0601,3.0269
867.0,-1.3092,-12.0242,-3.8286,-0.7752,-2.0601,3.0269
872.0,-1.3092,-12.0242,-3.8286,-0.7752,-2.0601,3.0269
877.0,-6.3762,-10.3462,7.1423,-0.7752,-2.0601,3.0269
882.0,-6.3762,-10.3462,7.1423,-0.7752,-2.0601,3.0269
887.0,-6.3762,-10.3462,7.1423,1.8894,0.2411,1.463
892.0,-6.3762,-10.3462,7.1423,1.8894,0.2411,1.463
897.0,-6.3762,-10.3462,7.1423,1.8894,0.2411,1.463
902.0,-1.3667,-9.1116,-4.0419,1.8894,0.2411,1.463
907.0,-1.3667,-9.1116,-4.0419,1.8894,0.2411,1.463
912.0,-1.3667,-9.1116,-4.0419,1.8894,0.2411,1.463
918.0,-1.3667,-9.1116,-4.0419,1.8894,0.2411,1.463
922.0,-1.3667,-9.1116,-4.0419,4.9205,-1.7986,-0.8662
927.0,-3.4931,-8.4204,3.6496,4.9205,-1.7986,-0.8662
933.0,-3.4931,-8.4204,3.6496,4.9205,-1.7986,-0.8662
937.0,-3.4931,-8.4204,3.6496,4.9205,-1.7986,-0.8662
942.0,-3.4931,-8.4204,3.6496,4.9205,-1.7986,-0.8662
947.0,-3.4931,-8.4204,3.6496,4.9205,-1.7986,-0.8662
952.0,-3.4931,-8.4204,3.6496,6.7709,-2.0674,-3.215
957.0,3.4752,-7.8389,4.4457,6.7709,-2.0674,-3.215
962.0,3.4752,-7.8389,4.4457,6.7709,-2.0674,-3.215
967.0,3.4752,-7.8389,4.4457,6.7709,-2.0674,-3.215
972.0,3.4752,-7.8389,4.4457,6.7709,-2.0674,-3.215
977.0,3.4752,-7.8389,4.4457,6.7709,-2.0674,-3.215
982.0,-1.1847,-2.6812,3.3558,4.1906,-1.743,-4.0214
988.0,-1.1847,-2.6812,3.3558,4.1906,-1.743,-4.0214
992.0,-1.1847,-2.6812,3.3558,4.1906,-1.743,-4.0214
997.0,-1.1847,-2.6812,3.3558,4.1906,-1.743,-4.0214
1002.0,-1.1847,-2.6812,3.3558,4.1906,-1.743,-4.0214
1008.0,-0.0975,-2.1044,2.4696,4.1906,-1.743,-4.0214
1012.0,-0.0975,-2.1044,2.4696,4.1906,-1.743,-4.0214
1017.0,-0.0975,-2.1044,2.4696,2.1179,0.3999,-5.4154
1022.0,-0.0975,-2.1044,2.4696,2.1179,0.3999,-5.4154
1027.0,-0.0975,-2.1044,2.4696,2.1179,0.3999,-5.4154
1032.0,-0.0975,-2.1044,2.4696,2.1179,0.3999,-5.4154
1037.0,0.2329,-2.9624,2.5549,2.1179,0.3999,-5.4154
1042.0,0.2329,-2.9624,2.5549,2.1179,0.3999,-5.4154
1047.0,0.2329,-2.9624,2.5549,0.8167,2.7206,-4.0073
1052.0,0.2329,-2.9624,2.5549,0.8167,2.7206,-4.0073
1057.0,0.2329,-2.9624,2.5549,0.8167,2.7206,-4.0073
1062.0,-3.9816,-1.2035,-2.8761,0.8167,2.7206,-4.0073
1067.0,-3.9816,-1.2035,-2.8761,0.8167,2.7206,-4.0073
1072.0,-3.9816,-1.2035,-2.8761,0.8167,2.7206,-4.0073
1077.0,-3.9816,-1.2035,-2.8761,-3.5925,3.9057,1.2926
1082.0,-3.9816,-1.2035,-2.8761,-3.5925,3.9057,1.2926
1087.0,-3.9816,-1.2035,-2.8761,-3.5925,3.9057,1.2926
1092.0,-3.7757,-5.3506,-0.734,-3.5925,3.9057,1.2926
1097.0,-3.7757,-5.3506,-0.734,-3.5925,3.9057,1.2926
1102.0,-3.7757,-5.3506,-0.734,-3.5925,3.9057,1.2926
1107.0,-3.7757,-5.3506,-0.734,-8.4661,-0.8554,1.7672
1112.0,-3.7757,-5.3506,-0.734,-8.4661,-0.8554,1.7672
1117.0,-5.3609,-10.1556,8.2986,-8.4661,-0.8554,1.7672
1122.0,-5.3609,-10.1556,8.2986,-8.4661,-0.8554,1.7672
1127.0,-5.3609,-10.1556,8.2986,-8.4661,-0.8554,1.7672
1133.0,-5.3609,-10.1556,8.2986,-8.4661,-0.8554,1.7672
1137.0,-5.3609,-10.1556,8.2986,-8.4661,-0.8554,1.7672
1142.0,-5.3609,-10.1556,8.2986,-10.3353,2.2734,2.0543
1147.0,-5.2986,-15.809,-4.1462,-10.3353,2.2734,2.0543
1153.0,-5.2986,-15.809,-4.1462,-10.3353,2.2734,2.0543
1157.0,-5.2986,-15.809,-4.1462,-10.3353,2.2734,2.0543
1162.0,-5.2986,-15.809,-4.1462,-10.3353,2.2734,2.0543
1167.0,-5.2986,-15.809,-4.1462,-10.3353,2.2734,2.0543
1172.0,-10.7775,-13.621,2.1426,-7.9572,-0.787,3.0452
1177.0,-10.7775,-13.621,2.1426,-7.9572,-0.787,3.0452
1182.0,-10.7775,-13.621,2.1426,-7.9572,-0.787,3.0452
1187.0,-10.7775,-13.621,2.1426,-7.9572,-0.787,3.0452
1192.0,-10.7775,-13.621,2.1426,-7.9572,-0.787,3.0452
1197.0,-11.0313,-16.8434,-15.0697,-7.9572,-0.787,3.0452
1202.0,-11.0313,-16.8434,-15.0697,-4.2761,-3.2525,1.6866
1207.0,-11.0313,-16.8434,-15.0697,-4.2761,-3.2525,1.6866
1212.0,-11.0313,-16.8434,-15.0697,-4.2761,-3.2525,1.6866
1217.0,-11.0313,-16.8434,-15.0697,-4.2761,-3.2525,1.6866
1222.0,-11.0313,-16.8434,-15.0697,-4.2761,-3.2525,1.6866
1227.0,-6.4864,-10.0173,-1.3217,-4.2761,-3.2525,1.6866
1232.0,-6.4864,-10.0173,-1.3217,-2.6066,-0.495,0.9132
1238.0,-6.4864,-10.0173,-1.3217,-2.6066,-0.495,0.9132
1242.0,-6.4864,-10.0173,-1.3217,-2.6066,-0.495,0.9132
1247.0,-6.4864,-10.0173,-1.3217,-2.6066,-0.495,0.9132
1252.0,-3.1195,-12.6248,3.0572,-2.6066,-0.495,0.9132
1257.0,-3.1195,-12.6248,3.0572,-2.6066,-0.495,0.9132
1262.0,-3.1195,-12.6248,3.0572,-1.9737,3.5465,0.7556
1267.0,-3.1195,-12.6248,3.0572,-1.9737,3.5465,0.7556
1272.0,-3.1195,-12.6248,3.0572,-1.9737,3.5465,0.7556
1277.0,-0.7297,-15.2656,0.5171,-1.9737,3.5465,0.7556
1282.0,-0.7297,-15.2656,0.5171,-1.9737,3.5465,0.7556
1287.0,-0.7297,-15.2656,0.5171,-1.9737,3.5465,0.7556
1292.0,-0.7297,-15.2656,0.5171,-2.099,5.0498,0.259
1297.0,-0.7297,-15.2656,0.5171,-2.099,5.0498,0.259
1302.0,-0.7297,-15.2656,0.5171,-2.099,5.0498,0.259
1307.0,2.1821,-14.889,2.9482,-2.099,5.0498,0.259
1312.0,2.1821,-14.889,2.9482,-2.099,5.0498,0.259
1317.0,2.1821,-14.889,2.9482,-2.099,5.0498,0.259
1322.0,2.1821,-14.889,2.9482,-1.4973,6.3901,0.7263
1327.0,2.1821,-14.889,2.9482,-1.4973,6.3901,0.7263
1332.0,3.9589,-13.1539,-3.9993,-1.4973,6.3901,0.7263
1337.0,3.9589,-13.1539,-3.9993,-1.4973,6.3901,0.7263
1342.0,3.9589,-13.1539,-3.9993,-1.4973,6.3901,0.7263
1347.0,3.9589,-13.1539,-3.9993,-1.4973,6.3901,0.7263
1352.0,3.9589,-13.1539,-3.9993,-1.4973,6.3901,0.7263
1357.0,4.39,-7.6482,0.6924,-0.055,1.0877,-0.8632
1362.0,4.39,-7.6482,0.6924,-0.055,1.0877,-0.8632
1367.0,4.39,-7.6482,0.6924,-0.055,1.0877,-0.8632
1372.0,4.39,-7.6482,0.6924,-0.055,1.0877,-0.8632
1378.0,4.39,-7.6482,0.6924,-0.055,1.0877,-0.8632
1382.0,4.39,-7.6482,0.6924,-0.055,1.0877,-0.8632
1387.0,2.345,-9.2308,4.2278,-0.2639,-0.0234,0.1509
1392.0,2.345,-9.2308,4.2278,-0.2639,-0.0234,0.1509
1397.0,2.345,-9.2308,4.2278,-0.2639,-0.0234,0.1509
1402.0,2.345,-9.2308,4.2278,-0.2639,-0.0234,0.1509
1407.0,2.345,-9.2308,4.2278,-0.2639,-0.0234,0.1509
1412.0,1.7511,-11.762,5.64,-0.2639,-0.0234,0.1509
1417.0,1.7511,-11.762,5.64,-0.2639,-0.0234,0.1509
1422.0,1.7511,-11.762,5.64,1.2449,0.2924,-0.3476
1427.0,1.7511,-11.762,5.64,1.2449,0.2924,-0.3476
1432.0,1.7511,-11.762,5.64,1.2449,0.2924,-0.3476
1437.0,2.8479,-12.5771,5.3888,1.2449,0.2924,-0.3476
1442.0,2.8479,-12.5771,5.3888,1.2449,0.2924,-0.3476
1448.0,2.8479,-12.5771,5.3888,1.8589,0.2081,-0.8864
1452.0,2.8479,-12.5771,5.3888,1.8589,0.2081,-0.8864
1457.0,2.8479,-12.5771,5.3888,1.8589,0.2081,-0.8864
1462.0,2.8479,-12.5771,5.3888,1.8589,0.2081,-0.8864
1467.0,4.5289,-11.4474,3.896,1.8589,0.2081,-0.8864
1472.0,4.5289,-11.4474,3.896,1.8589,0.2081,-0.8864
1478.0,4.5289,-11.4474,3.896,1.8589,0.2081,-0.8864
1482.0,4.5289,-11.4474,3.896,1.0806,-2.8774,-0.5156
1488.0,4.5289,-11.4474,3.896,1.0806,-2.8774,-0.5156
1492.0,8.638,-7.6291,-0.5919,1.0806,-2.8774,-0.5156
1497.0,8.638,-7.6291,-0.5919,1.0806,-2.8774,-0.5156
1502.0,8.638,-7.6291,-0.5919,1.0806,-2.8774,-0.5156
1507.0,8.638,-7.6291,-0.5919,1.0806,-2.8774,-0.5156
1512.0,8.638,-7.6291,-0.5919,1.0806,-2.8774,-0.5156
1517.0,8.638,-7.6291,-0.5919,-1.1356,-1.101,-4.1325
1522.0,8.2118,-7.3622,-0.1606,-1.1356,-1.101,-4.1325
1527.0,8.2118,-7.3622,-0.1606,-1.1356,-1.101,-4.1325
1532.0,8.2118,-7.3622,-0.1606,-1.1356,-1.101,-4.1325
1537.0,8.2118,-7.3622,-0.1606,-1.1356,-1.101,-4.1325
1542.0,8.2118,-7.3622,-0.1606,-1.1356,-1.101,-4.1325
1547.0,5.3287,-8.9925,2.1663,-2.7734,-1.4022,-4.576
1552.0,5.3287,-8.9925,2.1663,-2.7734,-1.4022,-4.576
1557.0,5.3287,-8.9925,2.1663,-2.7734,-1.4022,-4.576
1562.0,5.3287,-8.9925,2.1663,-2.7734,-1.4022,-4.576
1567.0,5.3287,-8.9925,2.1663,-2.7734,-1.4022,-4.576
1572.0,5.3287,-8.9925,2.1663,-2.7734,-1.4022,-4.576
1577.0,4.3612,-9.9363,0.4507,-1.8186,-2.3515,-3.7587
1582.0,4.3612,-9.9363,0.4507,-1.8186,-2.3515,-3.7587
1587.0,4.3612,-9.9363,0.4507,-1.8186,-2.3515,-3.7587
1592.0,4.3612,-9.9363,0.4507,-1.8186,-2.3515,-3.7587
1597.0,4.3612,-9.9363,0.4507,-1.8186,-2.3515,-3.7587
1602.0,4.5336,-10.3796,-0.5777,-1.8186,-2.3515,-3.7587
1607.0,4.5336,-10.3796,-0.5777,-0.9908,-0.3307,-3.7385
1612.0,4.5336,-10.3796,-0.5777,-0.9908,-0.3307,-3.7385
1617.0,4.5336,-10.3796,-0.5777,-0.9908,-0.3307,-3.7385
1622.0,4.5336,-10.3796,-0.5777,-0.9908,-0.3307,-3.7385
1627.0,3.3124,-10.3844,-1.3928,-0.9908,-0.3307,-3.7385
1633.0,3.3124,-10.3844,-1.3928,-0.9908,-0.3307,-3.7385
1637.0,3.3124,-10.3844,-1.3928,-0.9908,-0.3307,-3.7385
1642.0,3.3124,-10.3844,-1.3928,-1.0641,0.4341,-0.8296
1647.0,3.3124,-10.3844,-1.3928,-1.0641,0.4341,-0.8296
1652.0,3.3124,-10.3844,-1.3928,-1.0641,0.4341,-0.8296
1657.0,2.1534,-9.1402,-5.3262,-1.0641,0.4341,-0.8296
1663.0,2.1534,-9.1402,-5.3262,-1.0641,0.4341,-0.8296
1668.0,2.1534,-9.1402,-5.3262,-1.0641,0.4341,-0.8296
1672.0,2.1534,-9.1402,-5.3262,-0.4747,-2.0686,0.0476
1677.0,2.1534,-9.1402,-5.3262,-0.4747,-2.0686,0.0476
1682.0,2.9101,-7.2287,-2.9709,-0.4747,-2.0686,0.0476
1687.0,2.9101,-7.2287,-2.9709,-0.4747,-2.0686,0.0476
1692.0,2.9101,-7.2287,-2.9709,-0.4747,-2.0686,0.0476
1698.0,2.9101,-7.2287,-2.9709,-0.4747,-2.0686,0.0476
1702.0,2.9101,-7.2287,-2.9709,-0.4881,-2.3484,-0.1277
1707.0,2.9101,-7.2287,-2.9709,-0.4881,-2.3484,-0.1277
1712.0,3.0969,-6.4613,0.3749,-0.4881,-2.3484,-0.1277
1717.0,3.0969,-6.4613,0.3749,-0.4881,-2.3484,-0.1277
1722.0,3.0969,-6.4613,0.3749,-0.4881,-2.3484,-0.1277
1727.0,3.0969,-6.4613,0.3749,-0.4881,-2.3484,-0.1277
1732.0,3.0969,-6.4613,0.3749,-0.5962,-0.7876,0.201
1737.0,3.4561,-7.081,0.7919,-0.5962,-0.7876,0.201
1742.0,3.4561,-7.081,0.7919,-0.5962,-0.7876,0.201
1747.0,3.4561,-7.081,0.7919,-0.5962,-0.7876,0.201
1752.0,3.4561,-7.081,0.7919,-0.5962,-0.7876,0.201
1758.0,3.4561,-7.081,0.7919,-0.5962,-0.7876,0.201
1762.0,3.1927,-7.7292,-1.3359,-0.2694,-0.0601,0.4649
1768.0,3.1927,-7.7292,-1.3359,-0.2694,-0.0601,0.4649
1772.0,3.1927,-7.7292,-1.3359,-0.2694,-0.0601,0.4649
1777.0,3.1927,-7.7292,-1.3359,-0.2694,-0.0601,0.4649
1782.0,3.1927,-7.7292,-1.3359,-0.2694,-0.0601,0.4649
1788.0,3.1927,-7.7292,-1.3359,-0.2694,-0.0601,0.4649
1792.0,2.6659,-7.1668,-2.2221,-0.0666,-0.222,0.2065
1797.0,2.6659,-7.1668,-2.2221,-0.0666,-0.222,0.2065
1804.0,2.6659,-7.1668,-2.2221,-0.0666,-0.222,0.2065
1808.0,2.6659,-7.1668,-2.2221,-0.0666,-0.222,0.2065
1812.0,2.6659,-7.1668,-2.2221,-0.0666,-0.222,0.2065
1817.0,1.6458,-7.3241,-2.26,-0.0666,-0.222,0.2065
1822.0,1.6458,-7.3241,-2.26,0.0666,0.1061,0.2565
1827.0,1.6458,-7.3241,-2.26,0.0666,0.1061,0.2565
1832.0,1.6458,-7.3241,-2.26,0.0666,0.1061,0.2565
1837.0,1.6458,-7.3241,-2.26,0.0666,0.1061,0.2565
1843.0,1.5069,-7.0667,-2.715,0.0666,0.1061,0.2565
1848.0,1.5069,-7.0667,-2.715,0.0666,0.1061,0.2565
1853.0,1.5069,-7.0667,-2.715,0.2486,0.6467,0.8283
1857.0,1.5069,-7.0667,-2.715,0.2486,0.6467,0.8283
1862.0,1.5069,-7.0667,-2.715,0.2486,0.6467,0.8283
1867.0,1.5069,-7.0667,-2.715,0.2486,0.6467,0.8283
1872.0,2.4791,-6.7187,-3.7907,0.2486,0.6467,0.8283
1878.0,2.4791,-6.7187,-3.7907,0.2486,0.6467,0.8283
1883.0,2.4791,-6.7187,-3.7907,0.2291,0.1898,1.4648
1887.0,2.4791,-6.7187,-3.7907,0.2291,0.1898,1.4648
1892.0,2.4791,-6.7187,-3.7907,0.2291,0.1898,1.4648
1897.0,2.6898,-6.8903,-4.6343,0.2291,0.1898,1.4648
1903.0,2.6898,-6.8903,-4.6343,0.2291,0.1898,1.4648
1907.0,2.6898,-6.8903,-4.6343,0.2291,0.1898,1.4648
1912.0,2.6898,-6.8903,-4.6343,0.2413,-1.0857,1.4422
1917.0,2.6898,-6.8903,-4.6343,0.2413,-1.0857,1.4422
1922.0,2.5413,-7.1334,-3.7102,0.2413,-1.0857,1.4422
1927.0,2.5413,-7.1334,-3.7102,0.2413,-1.0857,1.4422
1933.0,2.5413,-7.1334,-3.7102,0.2413,-1.0857,1.4422
1937.0,2.5413,-7.1334,-3.7102,0.2413,-1.0857,1.4422
1942.0,2.5413,-7.1334,-3.7102,0.2413,-1.0857,1.4422
1947.0,2.5413,-7.1334,-3.7102,0.273,-1.4639,1.2504
1952.0,2.0528,-7.3765,-3.042,0.273,-1.4639,1.2504
1957.0,2.0528,-7.3765,-3.042,0.273,-1.4639,1.2504
1962.0,2.0528,-7.3765,-3.042,0.273,-1.4639,1.2504
1967.0,2.0528,-7.3765,-3.042,0.273,-1.4639,1.2504
1973.0,2.0528,-7.3765,-3.042,0.2963,-0.9318,1.2376
1977.0,1.7703,-7.8484,-3.7054,0.2963,-0.9318,1.2376
1983.0,1.7703,-7.8484,-3.7054,0.2963,-0.9318,1.2376
1987.0,1.7703,-7.8484,-3.7054,0.2963,-0.9318,1.2376
1993.0,1.7703,-7.8484,-3.7054,0.2963,-0.9318,1.2376
1997.0,1.7703,-7.8484,-3.7054,0.2963,-0.9318,1.2376
2002.0,1.7703,-7.8484,-3.7054,0.4508,-0.079,1.1466
2009.0,2.1678,-8.4967,-1.824,0.4508,-0.079,1.1466
2012.0,2.1678,-8.4967,-1.824,0.4508,-0.079,1.1466
2018.0,2.1678,-8.4967,-1.824,0.4508,-0.079,1.1466
2023.0,2.1678,-8.4967,-1.824,0.4508,-0.079,1.1466
2027.0,2.1678,-8.4967,-1.824,0.4508,-0.079,1.1466
2032.0,2.1678,-8.4967,-1.824,0.4508,-0.079,1.1466
2037.0,3.3076,-8.6349,-1.3406,0.493,0.8898,0.7532
2042.0,3.3076,-8.6349,-1.3406,0.493,0.8898,0.7532
2047.0,3.3076,-8.6349,-1.3406,0.493,0.8898,0.7532
2053.0,3.3076,-8.6349,-1.3406,0.493,0.8898,0.7532
2057.0,3.3076,-8.6349,-1.3406,0.493,0.8898,0.7532
2062.0,3.3076,-8.6349,-1.3406,0.493,0.8898,0.7532
2068.0,3.049,-9.8219,-3.5206,0.2046,1.3803,0.0403
2072.0,3.049,-9.8219,-3.5206,0.2046,1.3803,0.0403
2077.0,3.049,-9.8219,-3.5206,0.2046,1.3803,0.0403
2082.0,3.049,-9.8219,-3.5206,0.2046,1.3803,0.0403
2088.0,3.049,-9.8219,-3.5206,0.2046,1.3803,0.0403
2092.0,3.049,-9.8219,-3.5206,0.2046,1.3803,0.0403
2097.0,2.7808,-10.2366,-7.0465,0.1313,0.9539,-0.5815
2103.0,2.7808,-10.2366,-7.0465,0.1313,0.9539,-0.5815
2108.0,2.7808,-10.2366,-7.0465,0.1313,0.9539,-0.5815
2112.0,2.7808,-10.2366,-7.0465,0.1313,0.9539,-0.5815
2117.0,2.7808,-10.2366,-7.0465,0.1313,0.9539,-0.5815
2123.0,2.7808,-10.2366,-7.0465,0.1313,0.9539,-0.5815
2127.0,3.3795,-8.1869,-7.3355,-0.1949,-0.9489,-0.0214
2132.0,3.3795,-8.1869,-7.3355,-0.1949,-0.9489,-0.0214
2137.0,3.3795,-8.1869,-7.3355,-0.1949,-0.9489,-0.0214
2142.0,3.3795,-8.1869,-7.3355,-0.1949,-0.9489,-0.0214
2147.0,3.3795,-8.1869,-7.3355,-0.1949,-0.9489,-0.0214
2152.0,3.4225,-3.5345,-2.2885,-0.1949,-0.9489,-0.0214
2157.0,3.4225,-3.5345,-2.2885,-0.1949,-0.9489,-0.0214
2162.0,3.4225,-3.5345,-2.2885,-0.1833,-1.674,0.5791
2167.0,3.4225,-3.5345,-2.2885,-0.1833,-1.674,0.5791
2172.0,3.4225,-3.5345,-2.2885,-0.1833,-1.674,0.5791
2177.0,3.4225,-3.5345,-2.2885,-0.1833,-1.674,0.5791
2182.0,3.8871,-8.306,1.1189,-0.1833,-1.674,0.5791
2188.0,3.8871,-8.306,1.1189,-0.1833,-1.674,0.5791
2193.0,3.8871,-8.306,1.1189,0.0715,-1.3179,1.4777
2197.0,3.8871,-8.306,1.1189,0.0715,-1.3179,1.4777
2202.0,3.8871,-8.306,1.1189,0.0715,-1.3179,1.4777
2207.0,4.3708,-14.3742,3.2088,0.0715,-1.3179,1.4777
2212.0,4.3708,-14.3742,3.2088,0.0715,-1.3179,1.4777
2217.0,4.3708,-14.3742,3.2088,0.0715,-1.3179,1.4777
2222.0,4.3708,-14.3742,3.2088,0.3445,-0.5702,2.4581
2227.0,4.3708,-14.3742,3.2088,0.3445,-0.5702,2.4581
2232.0,4.3708,-14.3742,3.2088,0.3445,-0.5702,2.4581
2237.0,5.3382,-20.0324,0.0621,0.3445,-0.5702,2.4581
2242.0,5.3382,-20.0324,0.0621,0.3445,-0.5702,2.4581
2247.0,5.3382,-20.0324,0.0621,0.3445,-0.5702,2.4581
2252.0,5.3382,-20.0324,0.0621,0.8326,2.3712,0.9065
2257.0,5.3382,-20.0324,0.0621,0.8326,2.3712,0.9065
2264.0,-0.1071,-12.4484,-8.0227,0.8326,2.3712,0.9065
2267.0,-0.1071,-12.4484,-8.0227,0.8326,2.3712,0.9065
2273.0,-0.1071,-12.4484,-8.0227,0.8326,2.3712,0.9065
2278.0,-0.1071,-12.4484,-8.0227,0.8326,2.3712,0.9065
2282.0,-0.1071,-12.4484,-8.0227,0.9059,-0.5372,-1.2376
2290.0,-0.1071,-12.4484,-8.0227,0.9059,-0.5372,-1.2376
2292.0,-0.1071,-12.4484,-8.0227,0.9059,-0.5372,-1.2376
2297.0,3.4704,-4.5212,1.7634,0.9059,-0.5372,-1.2376
2303.0,3.4704,-4.5212,1.7634,0.9059,-0.5372,-1.2376
2307.0,3.4704,-4.5212,1.7634,0.9059,-0.5372,-1.2376
2313.0,3.4704,-4.5212,1.7634,-0.5339,-2.2079,0.1216
2317.0,3.4704,-4.5212,1.7634,-0.5339,-2.2079,0.1216
2322.0,3.4704,-4.5212,1.7634,-0.5339,-2.2079,0.1216
2327.0,1.4733,-4.464,2.5928,-0.5339,-2.2079,0.1216
2332.0,1.4733,-4.464,2.5928,-0.5339,-2.2079,0.1216
2337.0,1.4733,-4.464,2.5928,-0.5339,-2.2079,0.1216
2342.0,1.4733,-4.464,2.5928,-0.8509,-1.3887,0.4881
2347.0,1.4733,-4.464,2.5928,-0.8509,-1.3887,0.4881
2352.0,2.8862,-10.8896,3.7775,-0.8509,-1.3887,0.4881
2357.0,2.8862,-10.8896,3.7775,-0.8509,-1.3887,0.4881
2362.0,2.8862,-10.8896,3.7775,-0.8509,-1.3887,0.4881
2367.0,2.8862,-10.8896,3.7775,-0.8509,-1.3887,0.4881
2372.0,2.8862,-10.8896,3.7775,-0.8002,0.2496,0.9273
2377.0,4.0452,-17.1246,5.005,-0.8002,0.2496,0.9273
2382.0,4.0452,-17.1246,5.005,-0.8002,0.2496,0.9273
2387.0,4.0452,-17.1246,5.005,-0.8002,0.2496,0.9273
2392.0,4.0452,-17.1246,5.005,-0.8002,0.2496,0.9273
2398.0,4.0452,-17.1246,5.005,-0.8002,0.2496,0.9273
2402.0,1.3967,-18.1686,-8.3544,0.1167,2.7072,-0.8094
2407.0,1.3967,-18.1686,-8.3544,0.1167,2.7072,-0.8094
2412.0,1.3967,-18.1686,-8.3544,0.1167,2.7072,-0.8094
2417.0,1.3967,-18.1686,-8.3544,0.1167,2.7072,-0.8094
2423.0,1.3967,-18.1686,-8.3544,0.1167,2.7072,-0.8094
2429.0,2.4839,-10.8944,-0.8999,0.1167,2.7072,-0.8094
2432.0,2.4839,-10.8944,-0.8999,0.0128,1.3535,-1.9389
2438.0,2.4839,-10.8944,-0.8999,0.0128,1.3535,-1.9389
2443.0,2.4839,-10.8944,-0.8999,0.0128,1.3535,-1.9389
2447.0,2.4839,-10.8944,-0.8999,0.0128,1.3535,-1.9389
2453.0,2.4839,-10.8944,-0.8999,0.0128,1.3535,-1.9389
2457.0,1.0662,-6.1848,-0.8051,0.0128,1.3535,-1.9389
2462.0,1.0662,-6.1848,-0.8051,0.0128,1.3535,-1.9389
2468.0,1.0662,-6.1848,-0.8051,-0.4814,-0.4364,-0.4392
2473.0,1.0662,-6.1848,-0.8051,-0.4814,-0.4364,-0.4392
2477.0,1.0662,-6.1848,-0.8051,-0.4814,-0.4364,-0.4392
2482.0,1.0662,-6.1848,-0.8051,-0.4814,-0.4364,-0.4392
2487.0,0.0461,-6.8665,-1.1795,-0.4814,-0.4364,-0.4392
2492.0,0.0461,-6.8665,-1.1795,-0.4814,-0.4364,-0.4392
2497.0,0.0461,-6.8665,-1.1795,-0.1698,0.1513,0.8375
2502.0,0.0461,-6.8665,-1.1795,-0.1698,0.1513,0.8375
2507.0,0.0461,-6.8665,-1.1795,-0.1698,0.1513,0.8375
2512.0,1.1285,-8.8495,-1.2838,-0.1698,0.1513,0.8375
2517.0,1.1285,-8.8495,-1.2838,-0.1698,0.1513,0.8375
2522.0,1.1285,-8.8495,-1.2838,-0.1698,0.1513,0.8375
2527.0,1.1285,-8.8495,-1.2838,0.0696,-0.7302,1.3127
2533.0,1.1285,-8.8495,-1.2838,0.0696,-0.7302,1.3127
2537.0,1.1477,-5.8654,-2.6107,0.0696,-0.7302,1.3127
2542.0,1.1477,-5.8654,-2.6107,0.0696,-0.7302,1.3127
2547.0,1.1477,-5.8654,-2.6107,0.0696,-0.7302,1.3127
2552.0,1.1477,-5.8654,-2.6107,0.0696,-0.7302,1.3127
2557.0,1.1477,-5.8654,-2.6107,0.1711,-1.1639,0.4404
2563.0,1.1477,-5.8654,-2.6107,0.1711,-1.1639,0.4404
2567.0,2.1247,-5.8416,-5.293,0.1711,-1.1639,0.4404
2572.0,2.1247,-5.8416,-5.293,0.1711,-1.1639,0.4404
2577.0,2.1247,-5.8416,-5.293,0.1711,-1.1639,0.4404
2582.0,2.1247,-5.8416,-5.293,0.1711,-1.1639,0.4404
2588.0,2.1247,-5.8416,-5.293,-0.2712,-1.6618,-0.5144
2592.0,2.594,-6.7997,-0.5303,-0.2712,-1.6618,-0.5144
2597.0,2.594,-6.7997,-0.5303,-0.2712,-1.6618,-0.5144
2603.0,2.594,-6.7997,-0.5303,-0.2712,-1.6618,-0.5144
2607.0,2.594,-6.7997,-0.5303,-0.2712,-1.6618,-0.5144
2613.0,2.594,-6.7997,-0.5303,-0.2712,-1.6618,-0.5144
2617.0,2.594,-6.7997,-0.5303,-0.1344,-0.9904,-1.0195
2622.0,2.0097,-6.3421,-5.4589,-0.1344,-0.9904,-1.0195
2627.0,2.0097,-6.3421,-5.4589,-0.1344,-0.9904,-1.0195
2632.0,2.0097,-6.3421,-5.4589,-0.1344,-0.9904,-1.0195
2637.0,2.0097,-6.3421,-5.4589,-0.1344,-0.9904,-1.0195
2642.0,2.0097,-6.3421,-5.4589,-0.1344,-0.9904,-1.0195
2647.0,2.3689,-6.9141,-3.4116,-0.2413,-1.0436,-1.8644
2652.0,2.3689,-6.9141,-3.4116,-0.2413,-1.0436,-1.8644
2657.0,2.3689,-6.9141,-3.4116,-0.2413,-1.0436,-1.8644
2664.0,2.3689,-6.9141,-3.4116,-0.2413,-1.0436,-1.8644
2667.0,2.3689,-6.9141,-3.4116,-0.2413,-1.0436,-1.8644
2672.0,2.3689,-6.9141,-3.4116,-0.2413,-1.0436,-1.8644
2677.0,3.1975,-6.1848,-3.1557,-0.2413,-1.0436,-1.8644
2682.0,3.1975,-6.1848,-3.1557,-0.5479,-1.8194,-1.6426
2687.0,3.1975,-6.1848,-3.1557,-0.5479,-1.8194,-1.6426
2692.0,3.1975,-6.1848,-3.1557,-0.5479,-1.8194,-1.6426
2697.0,3.1975,-6.1848,-3.1557,-0.5479,-1.8194,-1.6426
2702.0,0.3191,-8.4109,-2.1321,-0.5479,-1.8194,-1.6426
2707.0,0.3191,-8.4109,-2.1321,-0.5479,-1.8194,-1.6426
2712.0,0.3191,-8.4109,-2.1321,-0.4563,-1.3331,-1.449
2717.0,0.3191,-8.4109,-2.1321,-0.4563,-1.3331,-1.449
2722.0,0.3191,-8.4109,-2.1321,-0.4563,-1.3331,-1.449
2727.0,-1.0314,-11.8573,-0.9947,-0.4563,-1.3331,-1.449
2732.0,-1.0314,-11.8573,-0.9947,-0.4563,-1.3331,-1.449
2737.0,-1.0314,-11.8573,-0.9947,-0.4563,-1.3331,-1.449
2742.0,-1.0314,-11.8573,-0.9947,0.1558,-0.6154,-1.325
2747.0,-1.0314,-11.8573,-0.9947,0.1558,-0.6154,-1.325
2753.0,-1.0314,-11.8573,-0.9947,0.1558,-0.6154,-1.325
2758.0,-0.2747,-17.4202,-5.312,0.1558,-0.6154,-1.325
2762.0,-0.2747,-17.4202,-5.312,0.1558,-0.6154,-1.325
2767.0,-0.2747,-17.4202,-5.312,0.1558,-0.6154,-1.325
2772.0,-0.2747,-17.4202,-5.312,0.8729,0.3718,-2.4691
2777.0,-0.2747,-17.4202,-5.312,0.8729,0.3718,-2.4691
2782.0,1.0758,-14.7555,-3.1889,0.8729,0.3718,-2.4691
2787.0,1.0758,-14.7555,-3.1889,0.8729,0.3718,-2.4691
2792.0,1.0758,-14.7555,-3.1889,0.8729,0.3718,-2.4691
2797.0,1.0758,-14.7555,-3.1889,0.8729,0.3718,-2.4691
2802.0,1.0758,-14.7555,-3.1889,0.7208,0.1134,-2.3971
2807.0,3.7865,-10.5131,-2.7908,0.7208,0.1134,-2.3971
2812.0,3.7865,-10.5131,-2.7908,0.7208,0.1134,-2.3971
2817.0,3.7865,-10.5131,-2.7908,0.7208,0.1134,-2.3971
2823.0,3.7865,-10.5131,-2.7908,0.7208,0.1134,-2.3971
2828.0,3.7865,-10.5131,-2.7908,0.7208,0.1134,-2.3971
2833.0,3.7865,-10.5131,-2.7908,-0.5968,0.6785,-1.8949
2838.0,6.1524,-10.3033,-3.6817,-0.5968,0.6785,-1.8949
2842.0,6.1524,-10.3033,-3.6817,-0.5968,0.6785,-1.8949
2848.0,6.1524,-10.3033,-3.6817,-0.5968,0.6785,-1.8949
2852.0,6.1524,-10.3033,-3.6817,-0.5968,0.6785,-1.8949
2858.0,6.1524,-10.3033,-3.6817,-0.5968,0.6785,-1.8949
2862.0,7.0193,-15.7041,-5.8427,-0.5968,0.6785,-1.8949
2867.0,7.0193,-15.7041,-5.8427,-0.6133,1.2227,-0.8473
2872.0,7.0193,-15.7041,-5.8427,-0.6133,1.2227,-0.8473
2878.0,7.0193,-15.7041,-5.8427,-0.6133,1.2227,-0.8473
2882.0,7.0193,-15.7041,-5.8427,-0.6133,1.2227,-0.8473
2887.0,4.1792,-12.5676,-6.075,-0.6133,1.2227,-0.8473
2892.0,4.1792,-12.5676,-6.075,-0.6133,1.2227,-0.8473
2897.0,4.1792,-12.5676,-6.075,1.1478,-0.2617,0.1411
2902.0,4.1792,-12.5676,-6.075,1.1478,-0.2617,0.1411
2907.0,4.1792,-12.5676,-6.075,1.1478,-0.2617,0.1411
2912.0,4.1792,-12.5676,-6.075,1.1478,-0.2617,0.1411
2917.0,3.5471,-6.6853,-2.5681,1.1478,-0.2617,0.1411
2922.0,3.5471,-6.6853,-2.5681,1.1478,-0.2617,0.1411
2927.0,3.5471,-6.6853,-2.5681,1.0226,-0.2653,0.6054
2933.0,3.5471,-6.6853,-2.5681,1.0226,-0.2653,0.6054
2937.0,3.5471,-6.6853,-2.5681,1.0226,-0.2653,0.6054
2942.0,3.5471,-6.6853,-2.5681,1.0226,-0.2653,0.6054
2947.0,3.3172,-4.3115,-0.535,1.0226,-0.2653,0.6054
2953.0,3.3172,-4.3115,-0.535,1.0226,-0.2653,0.6054
2957.0,3.3172,-4.3115,-0.535,1.0226,-0.2653,0.6054
2962.0,3.3172,-4.3115,-0.535,0.3128,0.6168,1.0715
2967.0,3.3172,-4.3115,-0.535,0.3128,0.6168,1.0715
2972.0,3.3172,-4.3115,-0.535,0.3128,0.6168,1.0715
2978.0,4.4953,-3.7823,-1.625,0.3128,0.6168,1.0715
2982.0,4.4953,-3.7823,-1.625,0.3128,0.6168,1.0715
2987.0,4.4953,-3.7823,-1.625,0.3128,0.6168,1.0715
2992.0,4.4953,-3.7823,-1.625,-0.0879,1.34,1.1289
2998.0,4.4953,-3.7823,-1.625,-0.0879,1.34,1.1289
3002.0,5.7022,-5.6509,-4.748,-0.0879,1.34,1.1289
3007.0,5.7022,-5.6509,-4.748,-0.0879,1.34,1.1289
3012.0,5.7022,-5.6509,-4.748,-0.0879,1.34,1.1289
3017.0,5.7022,-5.6509,-4.748,-0.0879,1.34,1.1289
3022.0,5.7022,-5.6509,-4.748,-0.2578,0.8819,1.1613
3027.0,3.8775,-8.6922,-6.6958,-0.2578,0.8819,1.1613
3032.0,3.8775,-8.6922,-6.6958,-0.2578,0.8819,1.1613
3038.0,3.8775,-8.6922,-6.6958,-0.2578,0.8819,1.1613
3042.0,3.8775,-8.6922,-6.6958,-0.2578,0.8819,1.1613
3048.0,3.8775,-8.6922,-6.6958,-0.2578,0.8819,1.1613
3052.0,3.8775,-8.6922,-6.6958,0.1423,-0.5457,2.3005
3057.0,3.9206,-8.6397,-2.786,0.1423,-0.5457,2.3005
3062.0,3.9206,-8.6397,-2.786,0.1423,-0.5457,2.3005
3067.0,3.9206,-8.6397,-2.786,0.1423,-0.5457,2.3005
3072.0,3.9206,-8.6397,-2.786,0.1423,-0.5457,2.3005
3078.0,3.9206,-8.6397,-2.786,0.1423,-0.5457,2.3005
3082.0,3.3842,-6.6377,-2.696,0.4325,-0.47,2.5565
3088.0,3.3842,-6.6377,-2.696,0.4325,-0.47,2.5565
3092.0,3.3842,-6.6377,-2.696,0.4325,-0.47,2.5565
3097.0,3.3842,-6.6377,-2.696,0.4325,-0.47,2.5565
3102.0,3.3842,-6.6377,-2.696,0.4325,-0.47,2.5565
3107.0,3.3842,-6.6377,-2.696,0.4325,-0.47,2.5565
3113.0,1.5069,-6.466,-1.1511,0.4325,-0.47,2.5565
3118.0,1.5069,-6.466,-1.1511,0.7153,-0.2922,1.8607
3122.0,1.5069,-6.466,-1.1511,0.7153,-0.2922,1.8607
3127.0,1.5069,-6.466,-1.1511,0.7153,-0.2922,1.8607
3133.0,1.5069,-6.466,-1.1511,0.7153,-0.2922,1.8607
3137.0,0.1324,-7.0238,1.2943,0.7153,-0.2922,1.8607
3142.0,0.1324,-7.0238,1.2943,0.7153,-0.2922,1.8607
3147.0,0.1324,-7.0238,1.2943,0.8565,0.0419,1.6835
3152.0,0.1324,-7.0238,1.2943,0.8565,0.0419,1.6835
3157.0,0.1324,-7.0238,1.2943,0.8565,0.0419,1.6835
3162.0,-1.0554,-6.385,1.2895,0.8565,0.0419,1.6835
3167.0,-1.0554,-6.385,1.2895,0.8565,0.0419,1.6835
3172.0,-1.0554,-6.385,1.2895,0.8565,0.0419,1.6835
3177.0,-1.0554,-6.385,1.2895,1.0018,0.5178,1.6151
3183.0,-1.0554,-6.385,1.2895,1.0018,0.5178,1.6151
3187.0,-2.1569,-5.7415,-5.1129,1.0018,0.5178,1.6151
3192.0,-2.1569,-5.7415,-5.1129,1.0018,0.5178,1.6151
3197.0,-2.1569,-5.7415,-5.1129,1.0018,0.5178,1.6151
3202.0,-2.1569,-5.7415,-5.1129,1.0018,0.5178,1.6151
3207.0,-2.1569,-5.7415,-5.1129,0.9964,0.9772,-0.5027
3212.0,-2.1569,-5.7415,-5.1129,0.9964,0.9772,-0.5027
3217.0,-0.0736,-6.0656,-5.7953,0.9964,0.9772,-0.5027
3222.0,-0.0736,-6.0656,-5.7953,0.9964,0.9772,-0.5027
3228.0,-0.0736,-6.0656,-5.7953,0.9964,0.9772,-0.5027
3232.0,-0.0736,-6.0656,-5.7953,0.9964,0.9772,-0.5027
3237.0,-0.0736,-6.0656,-5.7953,0.2095,1.3663,-0.7037
3242.0,1.6889,-7.0428,-4.421,0.2095,1.3663,-0.7037
3247.0,1.6889,-7.0428,-4.421,0.2095,1.3663,-0.7037
3252.0,1.6889,-7.0428,-4.421,0.2095,1.3663,-0.7037
3258.0,1.6889,-7.0428,-4.421,0.2095,1.3663,-0.7037
3265.0,1.6889,-7.0428,-4.421,0.2095,1.3663,-0.7037
3268.0,2.1869,-7.7197,-9.0558,0.0403,-0.1432,0.2626
3272.0,2.1869,-7.7197,-9.0558,0.0403,-0.1432,0.2626
3278.0,2.1869,-7.7197,-9.0558,0.0403,-0.1432,0.2626
3282.0,2.1869,-7.7197,-9.0558,0.0403,-0.1432,0.2626
3288.0,2.1869,-7.7197,-9.0558,0.0403,-0.1432,0.2626
3293.0,2.1869,-7.7197,-9.0558,0.0403,-0.1432,0.2626
3297.0,4.2702,-9.9792,-5.6295,-0.3634,-3.112,0.066
3302.0,4.2702,-9.9792,-5.6295,-0.3634,-3.112,0.066
3307.0,4.2702,-9.9792,-5.6295,-0.3634,-3.112,0.066
3313.0,4.2702,-9.9792,-5.6295,-0.3634,-3.112,0.066
3317.0,4.2702,-9.9792,-5.6295,-0.3634,-3.112,0.066
3325.0,6.0518,-15.5087,3.1852,-0.3634,-3.112,0.066
3327.0,6.0518,-15.5087,3.1852,-1.1429,-1.2207,-0.5058
3333.0,6.0518,-15.5087,3.1852,-1.1429,-1.2207,-0.5058
3337.0,6.0518,-15.5087,3.1852,-1.1429,-1.2207,-0.5058
3342.0,6.0518,-15.5087,3.1852,-1.1429,-1.2207,-0.5058
3347.0,6.0518,-15.5087,3.1852,-1.1429,-1.2207,-0.5058
3352.0,6.5691,-19.6749,3.9908,-1.1429,-1.2207,-0.5058
3357.0,6.5691,-19.6749,3.9908,-1.1301,0.1794,0.6909
3362.0,6.5691,-19.6749,3.9908,-1.1301,0.1794,0.6909
3367.0,6.5691,-19.6749,3.9908,-1.1301,0.1794,0.6909
3372.0,6.5691,-19.6749,3.9908,-1.1301,0.1794,0.6909
3377.0,3.7147,-10.1127,3.2468,-1.1301,0.1794,0.6909
3382.0,3.7147,-10.1127,3.2468,-1.1301,0.1794,0.6909
3387.0,3.7147,-10.1127,3.2468,-1.1301,0.1794,0.6909
3392.0,3.7147,-10.1127,3.2468,-0.1967,0.0633,0.9542
3397.0,3.7147,-10.1127,3.2468,-0.1967,0.0633,0.9542
3402.0,3.7147,-10.1127,3.2468,-0.1967,0.0633,0.9542
3407.0,1.7607,-6.4375,2.8724,-0.1967,0.0633,0.9542
3412.0,1.7607,-6.4375,2.8724,-0.1967,0.0633,0.9542
3417.0,1.7607,-6.4375,2.8724,-0.1967,0.0633,0.9542
3422.0,1.7607,-6.4375,2.8724,0.1142,0.4011,0.5333
3427.0,1.7607,-6.4375,2.8724,0.1142,0.4011,0.5333
3432.0,3.1017,-13.2683,2.7729,0.1142,0.4011,0.5333
3437.0,3.1017,-13.2683,2.7729,0.1142,0.4011,0.5333
3443.0,3.1017,-13.2683,2.7729,0.1142,0.4011,0.5333
3447.0,3.1017,-13.2683,2.7729,0.1142,0.4011,0.5333
3452.0,3.1017,-13.2683,2.7729,0.3396,0.2301,-2.675
3457.0,0.5777,-22.0011,-12.0651,0.3396,0.2301,-2.675
3462.0,0.5777,-22.0011,-12.0651,0.3396,0.2301,-2.675
3467.0,0.5777,-22.0011,-12.0651,0.3396,0.2301,-2.675
3472.0,0.5777,-22.0011,-12.0651,0.3396,0.2301,-2.675
3477.0,0.5777,-22.0011,-12.0651,0.3396,0.2301,-2.675
3482.0,1.6122,-8.9591,1.5028,-0.2113,-0.0155,-2.1839
3487.0,1.6122,-8.9591,1.5028,-0.2113,-0.0155,-2.1839
3492.0,1.6122,-8.9591,1.5028,-0.2113,-0.0155,-2.1839
3497.0,1.6122,-8.9591,1.5028,-0.2113,-0.0155,-2.1839
3502.0,1.6122,-8.9591,1.5028,-0.2113,-0.0155,-2.1839
3507.0,1.4494,-7.6482,1.6071,-0.2113,-0.0155,-2.1839
3512.0,1.4494,-7.6482,1.6071,-0.4875,0.3645,0.8198
3517.0,1.4494,-7.6482,1.6071,-0.4875,0.3645,0.8198
3522.0,1.4494,-7.6482,1.6071,-0.4875,0.3645,0.8198
3527.0,1.4494,-7.6482,1.6071,-0.4875,0.3645,0.8198
3532.0,1.4494,-7.6482,1.6071,-0.4875,0.3645,0.8198
3537.0,1.0519,-9.7122,1.2801,-0.4875,0.3645,0.8198
3543.0,1.0519,-9.7122,1.2801,-0.0592,-0.1004,1.6878
3548.0,1.0519,-9.7122,1.2801,-0.0592,-0.1004,1.6878
3552.0,1.0519,-9.7122,1.2801,-0.0592,-0.1004,1.6878
3558.0,1.0519,-9.7122,1.2801,-0.0592,-0.1004,1.6878
3562.0,1.3105,-12.9394,1.7113,-0.0592,-0.1004,1.6878
3568.0,1.3105,-12.9394,1.7113,-0.0592,-0.1004,1.6878
3572.0,1.3105,-12.9394,1.7113,0.3445,-0.0699,2.0953
3577.0,1.3105,-12.9394,1.7113,0.3445,-0.0699,2.0953
3582.0,1.3105,-12.9394,1.7113,0.3445,-0.0699,2.0953
3587.0,1.3105,-12.9394,1.7113,0.3445,-0.0699,2.0953
3592.0,0.8459,-10.6751,-0.2412,0.3445,-0.0699,2.0953
3597.0,0.8459,-10.6751,-0.2412,0.3445,-0.0699,2.0953
3602.0,0.8459,-10.6751,-0.2412,0.4331,-0.561,1.7972
3607.0,0.8459,-10.6751,-0.2412,0.4331,-0.561,1.7972
3612.0,0.8459,-10.6751,-0.2412,0.4331,-0.561,1.7972
3617.0,2.8479,-6.0418,-7.1649,0.4331,-0.561,1.7972
3622.0,2.8479,-6.0418,-7.1649,0.4331,-0.561,1.7972
3627.0,2.8479,-6.0418,-7.1649,0.4331,-0.561,1.7972
3632.0,2.8479,-6.0418,-7.1649,-0.0263,-0.8194,0.7581
3637.0,2.8479,-6.0418,-7.1649,-0.0263,-0.8194,0.7581
3642.0,2.2683,-8.1106,0.1569,-0.0263,-0.8194,0.7581
3647.0,2.2683,-8.1106,0.1569,-0.0263,-0.8194,0.7581
3652.0,2.2683,-8.1106,0.1569,-0.0263,-0.8194,0.7581
3657.0,2.2683,-8.1106,0.1569,-0.0263,-0.8194,0.7581
3662.0,2.2683,-8.1106,0.1569,-0.0788,-0.4767,0.4111
3668.0,2.2683,-8.1106,0.1569,-0.0788,-0.4767,0.4111
3673.0,2.6323,-5.9846,-0.9852,-0.0788,-0.4767,0.4111
3679.0,2.6323,-5.9846,-0.9852,-0.0788,-0.4767,0.4111
3682.0,2.6323,-5.9846,-0.9852,-0.0788,-0.4767,0.4111
3687.0,2.6323,-5.9846,-0.9852,-0.0788,-0.4767,0.4111
3692.0,2.6323,-5.9846,-0.9852,-0.1252,-0.1761,0.1582
3698.0,1.8852,-6.9046,-4.4305,-0.1252,-0.1761,0.1582
3702.0,1.8852,-6.9046,-4.4305,-0.1252,-0.1761,0.1582
3708.0,1.8852,-6.9046,-4.4305,-0.1252,-0.1761,0.1582
3712.0,1.8852,-6.9046,-4.4305,-0.1252,-0.1761,0.1582
3718.0,1.8852,-6.9046,-4.4305,-0.1252,-0.1761,0.1582
3722.0,0.8364,-8.4586,-2.1273,0.0324,-0.6172,-0.4301
3728.0,0.8364,-8.4586,-2.1273,0.0324,-0.6172,-0.4301
3732.0,0.8364,-8.4586,-2.1273,0.0324,-0.6172,-0.4301
3737.0,0.8364,-8.4586,-2.1273,0.0324,-0.6172,-0.4301
3742.0,0.8364,-8.4586,-2.1273,0.0324,-0.6172,-0.4301
3747.0,0.8364,-8.4586,-2.1273,0.0324,-0.6172,-0.4301
3752.0,-0.313,-9.5264,-0.7909,0.0324,-0.6172,-0.4301
3757.0,-0.313,-9.5264,-0.7909,-0.0605,-0.8243,-0.6139
3762.0,-0.313,-9.5264,-0.7909,-0.0605,-0.8243,-0.6139
3767.0,-0.313,-9.5264,-0.7909,-0.0605,-0.8243,-0.6139
3772.0,-0.313,-9.5264,-0.7909,-0.0605,-0.8243,-0.6139
3777.0,-1.9941,-9.5454,-1.2222,-0.0605,-0.8243,-0.6139
3783.0,-1.9941,-9.5454,-1.2222,-0.0605,-0.8243,-0.6139
3788.0,-1.9941,-9.5454,-1.2222,-0.0366,-0.3148,-0.1521
3792.0,-1.9941,-9.5454,-1.2222,-0.0366,-0.3148,-0.1521
3797.0,-1.9941,-9.5454,-1.2222,-0.0366,-0.3148,-0.1521
3802.0,-1.9941,-9.5454,-1.2222,-0.0366,-0.3148,-0.1521
3808.0,-2.4299,-8.7207,-2.4259,-0.0366,-0.3148,-0.1521
3812.0,-2.4299,-8.7207,-2.4259,-0.0366,-0.3148,-0.1521
3817.0,-2.4299,-8.7207,-2.4259,0.1833,0.1904,-0.4551
3822.0,-2.4299,-8.7207,-2.4259,0.1833,0.1904,-0.4551
3827.0,-2.4299,-8.7207,-2.4259,0.1833,0.1904,-0.4551
3833.0,-0.4376,-9.7361,0.882,0.1833,0.1904,-0.4551
3837.0,-0.4376,-9.7361,0.882,0.1833,0.1904,-0.4551
3842.0,-0.4376,-9.7361,0.882,0.1833,0.1904,-0.4551
3847.0,-0.4376,-9.7361,0.882,-0.1038,1.9766,-0.6481
3852.0,-0.4376,-9.7361,0.882,-0.1038,1.9766,-0.6481
3857.0,-0.4376,-9.7361,0.882,-0.1038,1.9766,-0.6481
3862.0,0.6352,-9.6169,0.1474,-0.1038,1.9766,-0.6481
3867.0,0.6352,-9.6169,0.1474,-0.1038,1.9766,-0.6481
3872.0,0.6352,-9.6169,0.1474,-0.1038,1.9766,-0.6481
3877.0,0.6352,-9.6169,0.1474,0.0507,2.9918,-0.5162
3882.0,0.6352,-9.6169,0.1474,0.0507,2.9918,-0.5162
3887.0,1.708,-7.7531,-3.4732,0.0507,2.9918,-0.5162
3892.0,1.708,-7.7531,-3.4732,0.0507,2.9918,-0.5162
3897.0,1.708,-7.7531,-3.4732,0.0507,2.9918,-0.5162
3902.0,1.708,-7.7531,-3.4732,0.0507,2.9918,-0.5162
3907.0,1.708,-7.7531,-3.4732,0.0507,2.9918,-0.5162
3912.0,1.708,-7.7531,-3.4732,0.0465,1.0957,-0.5076
3917.0,3.4417,-7.5624,-4.9044,0.0465,1.0957,-0.5076
3922.0,3.4417,-7.5624,-4.9044,0.0465,1.0957,-0.5076
3928.0,3.4417,-7.5624,-4.9044,0.0465,1.0957,-0.5076
3932.0,3.4417,-7.5624,-4.9044,0.0465,1.0957,-0.5076
3937.0,3.4417,-7.5624,-4.9044,0.0465,1.0957,-0.5076
3942.0,3.935,-9.2117,-3.5727,-0.1783,-0.1358,-1.0428
3947.0,3.935,-9.2117,-3.5727,-0.1783,-0.1358,-1.0428
3952.0,3.935,-9.2117,-3.5727,-0.1783,-0.1358,-1.0428
3957.0,3.935,-9.2117,-3.5727,-0.1783,-0.1358,-1.0428
3962.0,3.935,-9.2117,-3.5727,-0.1783,-0.1358,-1.0428
3967.0,3.935,-9.2117,-3.5727,-0.1783,-0.1358,-1.0428
3972.0,3.1591,-9.3976,-4.222,-0.1783,-0.1358,-1.0428
3977.0,3.1591,-9.3976,-4.222,-0.1838,0.4769,-2.5156
3982.0,3.1591,-9.3976,-4.222,-0.1838,0.4769,-2.5156
3987.0,3.1591,-9.3976,-4.222,-0.1838,0.4769,-2.5156
3992.0,3.1591,-9.3976,-4.222,-0.1838,0.4769,-2.5156
3997.0,0.9848,-11.1328,-0.5777,-0.1838,0.4769,-2.5156
4002.0,0.9848,-11.1328,-0.5777,-0.0885,0.8067,-3.292
4007.0,0.9848,-11.1328,-0.5777,-0.0885,0.8067,-3.292
4012.0,0.9848,-11.1328,-0.5777,-0.0885,0.8067,-3.292
4017.0,0.9848,-11.1328,-0.5777,-0.0885,0.8067,-3.292
4022.0,0.9848,-11.1328,-0.5777,-0.0885,0.8067,-3.292
4027.0,1.2722,-11.1566,-0.6772,-0.0885,0.8067,-3.292
4032.0,1.2722,-11.1566,-0.6772,-0.0885,0.8067,-3.292
4038.0,1.2722,-11.1566,-0.6772,-0.094,0.9723,-3.8369
4042.0,1.2722,-11.1566,-0.6772,-0.094,0.9723,-3.8369
4047.0,1.2722,-11.1566,-0.6772,-0.094,0.9723,-3.8369
4052.0,1.1908,-11.6571,1.0384,-0.094,0.9723,-3.8369
4057.0,1.1908,-11.6571,1.0384,-0.094,0.9723,-3.8369
4063.0,1.1908,-11.6571,1.0384,-0.094,0.9723,-3.8369
4067.0,1.1908,-11.6571,1.0384,0.124,0.9161,-3.0953
4072.0,1.1908,-11.6571,1.0384,0.124,0.9161,-3.0953
4078.0,4.1457,-12.4865,-1.5681,0.124,0.9161,-3.0953
4082.0,4.1457,-12.4865,-1.5681,0.124,0.9161,-3.0953
4088.0,4.1457,-12.4865,-1.5681,0.124,0.9161,-3.0953
4092.0,4.1457,-12.4865,-1.5681,0.124,0.9161,-3.0953
4097.0,4.1457,-12.4865,-1.5681,-1.0109,1.6003,-2.7501
4102.0,8.0873,-14.4266,-4.9281,-1.0109,1.6003,-2.7501
4107.0,8.0873,-14.4266,-4.9281,-1.0109,1.6003,-2.7501
4112.0,8.0873,-14.4266,-4.9281,-1.0109,1.6003,-2.7501
4117.0,8.0873,-14.4266,-4.9281,-1.0109,1.6003,-2.7501
4122.0,8.0873,-14.4266,-4.9281,-1.0109,1.6003,-2.7501
4127.0,8.0873,-14.4266,-4.9281,-2.1111,0.8153,-2.741
4132.0,5.2951,-14.6745,-7.4066,-2.1111,0.8153,-2.741
4137.0,5.2951,-14.6745,-7.4066,-2.1111,0.8153,-2.741
4142.0,5.2951,-14.6745,-7.4066,-2.1111,0.8153,-2.741
4147.0,5.2951,-14.6745,-7.4066,-2.1111,0.8153,-2.741
4152.0,5.2951,-14.6745,-7.4066,-2.1111,0.8153,-2.741
4158.0,3.8153,-10.7514,-3.876,-2.1111,0.8153,-2.741
4163.0,3.8153,-10.7514,-3.876,-0.2443,-0.3026,-1.9285
4167.0,3.8153,-10.7514,-3.876,-0.2443,-0.3026,-1.9285
4172.0,3.8153,-10.7514,-3.876,-0.2443,-0.3026,-1.9285
4177.0,3.8153,-10.7514,-3.876,-0.2443,-0.3026,-1.9285
4183.0,3.7626,-7.5815,-3.8713,-0.2443,-0.3026,-1.9285
4187.0,3.7626,-7.5815,-3.8713,-0.2443,-0.3026,-1.9285
4193.0,3.7626,-7.5815,-3.8713,0.8693,0.2594,-0.2089
4197.0,3.7626,-7.5815,-3.8713,0.8693,0.2594,-0.2089
4202.0,3.7626,-7.5815,-3.8713,0.8693,0.2594,-0.2089
4207.0,3.7626,-7.5815,-3.8713,0.8693,0.2594,-0.2089
4212.0,3.4561,-6.8569,-4.2646,0.8693,0.2594,-0.2089
4217.0,3.4561,-6.8569,-4.2646,0.8693,0.2594,-0.2089
4222.0,3.4561,-6.8569,-4.2646,0.9279,0.2331,1.0568
4228.0,3.4561,-6.8569,-4.2646,0.9279,0.2331,1.0568
4232.0,3.4561,-6.8569,-4.2646,0.9279,0.2331,1.0568
4237.0,3.1879,-6.5423,-3.3832,0.9279,0.2331,1.0568
4242.0,3.1879,-6.5423,-3.3832,0.9279,0.2331,1.0568
4247.0,3.1879,-6.5423,-3.3832,0.9279,0.2331,1.0568
4252.0,3.1879,-6.5423,-3.3832,0.9279,0.2331,1.0568
4257.0,3.1879,-6.5423,-3.3832,1.1301,0.4182,1.9413
4262.0,3.0298,-5.7034,-3.1794,1.1301,0.4182,1.9413
4268.0,3.0298,-5.7034,-3.1794,1.1301,0.4182,1.9413
4272.0,3.0298,-5.7034,-3.1794,1.1301,0.4182,1.9413
4277.0,3.0298,-5.7034,-3.1794,1.1301,0.4182,1.9413
4282.0,3.0298,-5.7034,-3.1794,1.1301,0.4182,1.9413
4287.0,3.0298,-5.7034,-3.1794,1.2279,-0.0851,2.3763
4293.0,2.5365,-4.1685,-2.4638,1.2279,-0.0851,2.3763
4297.0,2.5365,-4.1685,-2.4638,1.2279,-0.0851,2.3763
4302.0,2.5365,-4.1685,-2.4638,1.2279,-0.0851,2.3763
4307.0,2.5365,-4.1685,-2.4638,1.2279,-0.0851,2.3763
4312.0,2.5365,-4.1685,-2.4638,1.2279,-0.0851,2.3763
4317.0,2.5365,-4.1685,-2.4638,0.8559,-0.2549,3.0311
4323.0,2.4072,-3.9635,-0.426,0.8559,-0.2549,3.0311
4327.0,2.4072,-3.9635,-0.426,0.8559,-0.2549,3.0311
4332.0,2.4072,-3.9635,-0.426,0.8559,-0.2549,3.0311
4338.0,2.4072,-3.9635,-0.426,0.8559,-0.2549,3.0311
4342.0,2.4072,-3.9635,-0.426,0.8559,-0.2549,3.0311
4347.0,2.4072,-3.9635,-0.426,0.595,-0.1199,3.8906
4352.0,2.1917,-7.0524,0.0289,0.595,-0.1199,3.8906
4357.0,2.1917,-7.0524,0.0289,0.595,-0.1199,3.8906
4363.0,2.1917,-7.0524,0.0289,0.595,-0.1199,3.8906
4367.0,2.1917,-7.0524,0.0289,0.595,-0.1199,3.8906
4372.0,2.1917,-7.0524,0.0289,0.595,-0.1199,3.8906
4377.0,2.1007,-8.7637,-0.8288,0.8913,0.3242,3.6854
4382.0,2.1007,-8.7637,-0.8288,0.8913,0.3242,3.6854
4387.0,2.1007,-8.7637,-0.8288,0.8913,0.3242,3.6854
4392.0,2.1007,-8.7637,-0.8288,0.8913,0.3242,3.6854
4397.0,2.1007,-8.7637,-0.8288,0.8913,0.3242,3.6854
4402.0,3.3268,-7.5624,-0.9141,0.8913,0.3242,3.6854
4408.0,3.3268,-7.5624,-0.9141,0.8913,0.3242,3.6854
4412.0,3.3268,-7.5624,-0.9141,0.4783,1.6565,1.8796
4417.0,3.3268,-7.5624,-0.9141,0.4783,1.6565,1.8796
4422.0,3.3268,-7.5624,-0.9141,0.4783,1.6565,1.8796
4427.0,3.3268,-7.5624,-0.9141,0.4783,1.6565,1.8796
4432.0,4.1888,-7.1143,-2.2695,0.4783,1.6565,1.8796
4437.0,4.1888,-7.1143,-2.2695,0.4783,1.6565,1.8796
4443.0,4.1888,-7.1143,-2.2695,-0.3787,3.3852,-0.5504
4447.0,4.1888,-7.1143,-2.2695,-0.3787,3.3852,-0.5504
4452.0,4.1888,-7.1143,-2.2695,-0.3787,3.3852,-0.5504
4457.0,6.0854,-10.5417,-5.819,-0.3787,3.3852,-0.5504
4464.0,6.0854,-10.5417,-5.819,-0.3787,3.3852,-0.5504
4468.0,6.0854,-10.5417,-5.819,-0.3787,3.3852,-0.5504
4472.0,6.0854,-10.5417,-5.819,-0.6218,3.6577,-1.1918
4477.0,6.0854,-10.5417,-5.819,-0.6218,3.6577,-1.1918
4482.0,5.5394,-11.6142,-8.3307,-0.6218,3.6577,-1.1918
4487.0,5.5394,-11.6142,-8.3307,-0.6218,3.6577,-1.1918
4492.0,5.5394,-11.6142,-8.3307,-0.6218,3.6577,-1.1918
4497.0,5.5394,-11.6142,-8.3307,-0.6218,3.6577,-1.1918
4502.0,5.5394,-11.6142,-8.3307,-0.6218,3.6577,-1.1918
4508.0,5.5394,-4.3544,-9.179,-0.5809,-1.1254,-1.2266
4512.0,6.6074,-4.3544,-9.179,-0.5809,-1.1254,-1.2266
4517.0,6.6074,-4.3544,-9.179,-0.5809,-1.1254,-1.2266
4522.0,6.6074,-4.3544,-9.179,-0.5809,-1.1254,-1.2266
4527.0,6.6074,-4.3544,-9.179,-0.5809,-1.1254,-1.2266
4532.0,6.6074,-4.3544,-9.179,-0.5809,-1.1254,-1.2266
4537.0,3.1112,0.6842,-10.1079,-0.5345,-0.3863,-2.0043
4542.0,3.1112,0.6842,-10.1079,-0.5345,-0.3863,-2.0043
4547.0,3.1112,0.6842,-10.1079,-0.5345,-0.3863,-2.0043
4552.0,3.1112,0.6842,-10.1079,-0.5345,-0.3863,-2.0043
4557.0,3.1112,0.6842,-10.1079,-0.5345,-0.3863,-2.0043
4562.0,4.5576,-5.7272,1.1284,-0.5345,-0.3863,-2.0043
4567.0,4.5576,-5.7272,1.1284,-0.9322,-6.1816,1.1136
4572.0,4.5576,-5.7272,1.1284,-0.9322,-6.1816,1.1136
4577.0,4.5576,-5.7272,1.1284,-0.9322,-6.1816,1.1136
4583.0,4.5576,-5.7272,1.1284,-0.9322,-6.1816,1.1136
4587.0,4.5576,-5.7272,1.1284,-0.9322,-6.1816,1.1136
4592.0,7.1007,-12.8393,6.2371,-0.9322,-6.1816,1.1136
4597.0,7.1007,-12.8393,6.2371,-0.8937,-7.1449,3.3531
4602.0,7.1007,-12.8393,6.2371,-0.8937,-7.1449,3.3531
4607.0,7.1007,-12.8393,6.2371,-0.8937,-7.1449,3.3531
4612.0,7.1007,-12.8393,6.2371,-0.8937,-7.1449,3.3531
4617.0,9.8162,-20.0991,8.4645,-0.8937,-7.1449,3.3531
4622.0,9.8162,-20.0991,8.4645,-0.8937,-7.1449,3.3531
4627.0,9.8162,-20.0991,8.4645,0.0593,-0.1829,2.5369
4632.0,9.8162,-20.0991,8.4645,0.0593,-0.1829,2.5369
4637.0,9.8162,-20.0991,8.4645,0.0593,-0.1829,2.5369
4642.0,4.8497,-11.9717,2.3653,0.0593,-0.1829,2.5369
4648.0,4.8497,-11.9717,2.3653,0.0593,-0.1829,2.5369
4652.0,4.8497,-11.9717,2.3653,0.0593,-0.1829,2.5369
4657.0,4.8497,-11.9717,2.3653,0.0593,-0.1829,2.5369
4663.0,4.8497,-11.9717,2.3653,-0.2706,2.2667,0.9175
4667.0,4.8497,-11.9717,2.3653,-0.2706,2.2667,0.9175
4672.0,-1.2948,-7.0428,-4.0988,-0.2706,2.2667,0.9175
4677.0,-1.2948,-7.0428,-4.0988,-0.2706,2.2667,0.9175
4683.0,-1.2948,-7.0428,-4.0988,-0.2706,2.2667,0.9175
4688.0,-1.2948,-7.0428,-4.0988,-0.2706,2.2667,0.9175
4692.0,-1.2948,-7.0428,-4.0988,0.2688,-0.1114,-1.4777
4697.0,-1.6732,-7.8389,-2.3074,0.2688,-0.1114,-1.4777
4703.0,-1.6732,-7.8389,-2.3074,0.2688,-0.1114,-1.4777
4707.0,-1.6732,-7.8389,-2.3074,0.2688,-0.1114,-1.4777
4712.0,-1.6732,-7.8389,-2.3074,0.2688,-0.1114,-1.4777
4717.0,-1.6732,-7.8389,-2.3074,0.2688,-0.1114,-1.4777
4722.0,-1.0458,-11.271,-2.1273,0.3397,-2.1266,-1.4514
4727.0,-1.0458,-11.271,-2.1273,0.3397,-2.1266,-1.4514
4732.0,-1.0458,-11.271,-2.1273,0.3397,-2.1266,-1.4514
4737.0,-1.0458,-11.271,-2.1273,0.3397,-2.1266,-1.4514
4742.0,-1.0458,-11.271,-2.1273,0.3397,-2.1266,-1.4514
4747.0,-1.0458,-11.271,-2.1273,0.3397,-2.1266,-1.4514
4752.0,-2.1473,-18.588,-2.7481,-0.386,-1.3166,1.9077
4757.0,-2.1473,-18.588,-2.7481,-0.386,-1.3166,1.9077
4762.0,-2.1473,-18.588,-2.7481,-0.386,-1.3166,1.9077
4767.0,-2.1473,-18.588,-2.7481,-0.386,-1.3166,1.9077
4772.0,-2.1473,-18.588,-2.7481,-0.386,-1.3166,1.9077
4777.0,1.4063,-21.8009,-6.056,-0.386,-1.3166,1.9077
4783.0,1.4063,-21.8009,-6.056,0.0128,-1.7864,2.565
4788.0,1.4063,-21.8009,-6.056,0.0128,-1.7864,2.565
4792.0,1.4063,-21.8009,-6.056,0.0128,-1.7864,2.565
4797.0,1.4063,-21.8009,-6.056,0.0128,-1.7864,2.565
4802.0,1.4063,-21.8009,-6.056,0.0128,-1.7864,2.565
4806.0,1.4063,-21.8009,-6.056,0.0128,-1.7864,2.565
4812.0,1.1381,-11.8096,2.0952,0.0629,-0.3154,0.1875
4817.0,1.1381,-11.8096,2.0952,0.0629,-0.3154,0.1875
4822.0,1.1381,-11.8096,2.0952,0.0629,-0.3154,0.1875
4828.0,1.1381,-11.8096,2.0952,0.0629,-0.3154,0.1875
4832.0,1.1381,-11.8096,2.0952,0.0629,-0.3154,0.1875
4838.0,-0.0401,-6.5471,2.0857,0.0629,-0.3154,0.1875
4842.0,-0.0401,-6.5471,2.0857,0.0629,-0.3154,0.1875
4850.0,-0.0401,-6.5471,2.0857,0.2334,1.3804,-0.5186
4852.0,-0.0401,-6.5471,2.0857,0.2334,1.3804,-0.5186
4857.0,-0.0401,-6.5471,2.0857,0.2334,1.3804,-0.5186
4863.0,-0.0017,-4.1589,1.0952,0.2334,1.3804,-0.5186
4867.0,-0.0017,-4.1589,1.0952,0.2334,1.3804,-0.5186
4872.0,-0.0017,-4.1589,1.0952,0.2334,1.3804,-0.5186
4877.0,-0.0017,-4.1589,1.0952,0.2315,2.2527,0.0556
4882.0,-0.0017,-4.1589,1.0952,0.2315,2.2527,0.0556
4888.0,1.1381,-8.797,1.1663,0.2315,2.2527,0.0556
4892.0,1.1381,-8.797,1.1663,0.2315,2.2527,0.0556
4897.0,1.1381,-8.797,1.1663,0.2315,2.2527,0.0556
4902.0,1.1381,-8.797,1.1663,0.2315,2.2527,0.0556
4907.0,1.1381,-8.797,1.1663,0.1521,2.6748,1.733
4912.0,1.1381,-8.797,1.1663,0.1521,2.6748,1.733
4918.0,1.7607,-11.8907,0.4697,0.1521,2.6748,1.733
4922.0,1.7607,-11.8907,0.4697,0.1521,2.6748,1.733
4927.0,1.7607,-11.8907,0.4697,0.1521,2.6748,1.733
4932.0,1.7607,-11.8907,0.4697,0.1521,2.6748,1.733
4937.0,1.7607,-11.8907,0.4697,0.0813,1.3132,1.8888
4942.0,2.3067,-9.0592,-1.2601,0.0813,1.3132,1.8888
4948.0,2.3067,-9.0592,-1.2601,0.0813,1.3132,1.8888
4952.0,2.3067,-9.0592,-1.2601,0.0813,1.3132,1.8888
4957.0,2.3067,-9.0592,-1.2601,0.0813,1.3132,1.8888
4962.0,2.3067,-9.0592,-1.2601,0.0813,1.3132,1.8888
4967.0,5.1419,-4.688,-8.2691,-0.295,-2.291,0.5956
4972.0,5.1419,-4.688,-8.2691,-0.295,-2.291,0.5956
4977.0,5.1419,-4.688,-8.2691,-0.295,-2.291,0.5956
4982.0,5.1419,-4.688,-8.2691,-0.295,-2.291,0.5956
4987.0,5.1419,-4.688,-8.2691,-0.295,-2.291,0.5956
4992.0,5.1419,-4.688,-8.2691,-0.295,-2.291,0.5956
4997.0,3.5566,-7.0095,-0.0232,-0.295,-2.291,0.5956
5002.0,3.5566,-7.0095,-0.0232,-0.3512,-2.3313,-0.529
5007.0,3.5566,-7.0095,-0.0232,-0.3512,-2.3313,-0.529
5012.0,3.5566,-7.0095,-0.0232,-0.3512,-2.3313,-0.529
5017.0,3.5566,-7.0095,-0.0232,-0.3512,-2.3313,-0.529
5022.0,1.3105,-6.6281,-0.3028,-0.3512,-2.3313,-0.529
5027.0,1.3105,-6.6281,-0.3028,-0.3512,-2.3313,-0.529
5032.0,1.3105,-6.6281,-0.3028,0.2621,-0.4742,-0.7404
5037.0,1.3105,-6.6281,-0.3028,0.2621,-0.4742,-0.7404
5043.0,1.3105,-6.6281,-0.3028,0.2621,-0.4742,-0.7404
5047.0,1.3105,-6.6281,-0.3028,0.2621,-0.4742,-0.7404
5052.0,0.0222,-8.4061,-1.1132,0.2621,-0.4742,-0.7404
5057.0,0.0222,-8.4061,-1.1132,0.2621,-0.4742,-0.7404
5062.0,0.0222,-8.4061,-1.1132,0.5376,-0.258,-0.9994
5068.0,0.0222,-8.4061,-1.1132,0.5376,-0.258,-0.9994
5072.0,0.0222,-8.4061,-1.1132,0.5376,-0.258,-0.9994
5077.0,-2.0228,-8.2202,-5.6627,0.5376,-0.258,-0.9994
5082.0,-2.0228,-8.2202,-5.6627,0.5376,-0.258,-0.9994
5087.0,-2.0228,-8.2202,-5.6627,0.5376,-0.258,-0.9994
5092.0,-2.0228,-8.2202,-5.6627,0.6035,-1.4284,-1.6744
5097.0,-2.0228,-8.2202,-5.6627,0.6035,-1.4284,-1.6744
5102.0,-2.0228,-8.2202,-5.6627,0.6035,-1.4284,-1.6744
5107.0,-1.0697,-6.8379,0.4365,0.6035,-1.4284,-1.6744
5112.0,-1.0697,-6.8379,0.4365,0.6035,-1.4284,-1.6744
5117.0,-1.0697,-6.8379,0.4365,0.6035,-1.4284,-1.6744
5122.0,-1.0697,-6.8379,0.4365,-0.0751,0.1305,-1.1546
5127.0,-1.0697,-6.8379,0.4365,-0.0751,0.1305,-1.1546
5133.0,-0.4711,-9.9792,0.7588,-0.0751,0.1305,-1.1546
5138.0,-0.4711,-9.9792,0.7588,-0.0751,0.1305,-1.1546
5142.0,-0.4711,-9.9792,0.7588,-0.0751,0.1305,-1.1546
5148.0,-0.4711,-9.9792,0.7588,-0.0751,0.1305,-1.1546
5152.0,-0.4711,-9.9792,0.7588,-0.0751,0.1305,-1.1546
5157.0,1.6793,-8.778,-4.8665,-0.0696,1.9436,-1.5101
5162.0,1.6793,-8.778,-4.8665,-0.0696,1.9436,-1.5101
5167.0,1.6793,-8.778,-4.8665,-0.0696,1.9436,-1.5101
5172.0,1.6793,-8.778,-4.8665,-0.0696,1.9436,-1.5101
5177.0,1.6793,-8.778,-4.8665,-0.0696,1.9436,-1.5101
5182.0,1.6793,-8.778,-4.8665,-0.0696,1.9436,-1.5101
5187.0,3.1687,-9.1259,-4.3831,-0.1594,1.3852,-2.7905
5192.0,3.1687,-9.1259,-4.3831,-0.1594,1.3852,-2.7905
5197.0,3.1687,-9.1259,-4.3831,-0.1594,1.3852,-2.7905
5202.0,3.1687,-9.1259,-4.3831,-0.1594,1.3852,-2.7905
5207.0,3.1687,-9.1259,-4.3831,-0.1594,1.3852,-2.7905
5212.0,2.9676,-12.4103,-2.6202,-0.1594,1.3852,-2.7905
5217.0,2.9676,-12.4103,-2.6202,-0.1124,0.3999,-3.6066
5222.0,2.9676,-12.4103,-2.6202,-0.1124,0.3999,-3.6066
5227.0,2.9676,-12.4103,-2.6202,-0.1124,0.3999,-3.6066
5232.0,2.9676,-12.4103,-2.6202,-0.1124,0.3999,-3.6066
5237.0,2.9676,-12.4103,-2.6202,-0.1124,0.3999,-3.6066
5242.0,5.4532,-14.5553,-5.9043,-0.1124,0.3999,-3.6066
5248.0,5.4532,-14.5553,-5.9043,-0.011,0.1391,-4.4465
5253.0,5.4532,-14.5553,-5.9043,-0.011,0.1391,-4.4465
5258.0,5.4532,-14.5553,-5.9043,-0.011,0.1391,-4.4465
5262.0,5.4532,-14.5553,-5.9043,-0.011,0.1391,-4.4465
5267.0,4.639,-14.9557,-1.7624,-0.011,0.1391,-4.4465
5272.0,4.639,-14.9557,-1.7624,-0.011,0.1391,-4.4465
5277.0,4.639,-14.9557,-1.7624,-0.011,0.1391,-4.4465
5282.0,4.639,-14.9557,-1.7624,0.0074,0.5703,-2.5773
5287.0,4.639,-14.9557,-1.7624,0.0074,0.5703,-2.5773
5292.0,4.639,-14.9557,-1.7624,0.0074,0.5703,-2.5773
5297.0,4.2319,-16.1331,-5.4115,0.0074,0.5703,-2.5773
5302.0,4.2319,-16.1331,-5.4115,0.0074,0.5703,-2.5773
5307.0,4.2319,-16.1331,-5.4115,0.0074,0.5703,-2.5773
5312.0,4.2319,-16.1331,-5.4115,0.2376,-2.1749,-0.8894
5318.0,4.2319,-16.1331,-5.4115,0.2376,-2.1749,-0.8894
5322.0,2.6467,-19.0981,-7.1602,0.2376,-2.1749,-0.8894
5327.0,2.6467,-19.0981,-7.1602,0.2376,-2.1749,-0.8894
5332.0,2.6467,-19.0981,-7.1602,0.2376,-2.1749,-0.8894
5337.0,2.6467,-19.0981,-7.1602,0.2376,-2.1749,-0.8894
5342.0,2.6467,-19.0981,-7.1602,0.6897,-2.3936,-0.7679
5347.0,2.776,-13.3875,-4.6864,0.6897,-2.3936,-0.7679
5352.0,2.776,-13.3875,-4.6864,0.6897,-2.3936,-0.7679
5357.0,2.776,-13.3875,-4.6864,0.6897,-2.3936,-0.7679
5362.0,2.776,-13.3875,-4.6864,0.6897,-2.3936,-0.7679
5367.0,2.776,-13.3875,-4.6864,0.6897,-2.3936,-0.7679
5372.0,2.6515,-6.3421,-1.9141,0.2963,-0.6056,-0.5877
5377.0,2.6515,-6.3421,-1.9141,0.2963,-0.6056,-0.5877
5383.0,2.6515,-6.3421,-1.9141,0.2963,-0.6056,-0.5877
5387.0,2.6515,-6.3421,-1.9141,0.2963,-0.6056,-0.5877
5392.0,2.6515,-6.3421,-1.9141,0.2963,-0.6056,-0.5877
5397.0,2.6515,-6.3421,-1.9141,0.2963,-0.6056,-0.5877
5402.0,1.1525,-3.9539,-0.1511,0.2963,-0.6056,-0.5877
5407.0,1.1525,-3.9539,-0.1511,0.1167,0.3413,0.1704
5412.0,1.1525,-3.9539,-0.1511,0.1167,0.3413,0.1704
5417.0,1.1525,-3.9539,-0.1511,0.1167,0.3413,0.1704
5422.0,1.1525,-3.9539,-0.1511,0.1167,0.3413,0.1704
5427.0,0.9082,-3.1102,0.0526,0.1167,0.3413,0.1704
5433.0,0.9082,-3.1102,0.0526,0.1167,0.3413,0.1704
5437.0,0.9082,-3.1102,0.0526,0.457,0.2044,0.9218
5442.0,0.9082,-3.1102,0.0526,0.457,0.2044,0.9218
5447.0,0.9082,-3.1102,0.0526,0.457,0.2044,0.9218
5453.0,2.4695,-2.1807,-1.0705,0.457,0.2044,0.9218
5458.0,2.4695,-2.1807,-1.0705,0.457,0.2044,0.9218
5462.0,2.4695,-2.1807,-1.0705,0.457,0.2044,0.9218
5467.0,2.4695,-2.1807,-1.0705,0.2499,0.6058,1.127
5472.0,2.4695,-2.1807,-1.0705,0.2499,0.6058,1.127
5477.0,2.4695,-2.1807,-1.0705,0.2499,0.6058,1.127
5482.0,2.7712,-2.7623,-1.3691,0.2499,0.6058,1.127
5487.0,2.7712,-2.7623,-1.3691,0.2499,0.6058,1.127
5492.0,2.7712,-2.7623,-1.3691,0.2499,0.6058,1.127
5497.0,2.7712,-2.7623,-1.3691,0.2499,0.6058,1.127
5502.0,2.7712,-2.7623,-1.3691,-0.1698,1.5728,2.3414
5507.0,3.0634,-4.054,-3.5253,-0.1698,1.5728,2.3414
5512.0,3.0634,-4.054,-3.5253,-0.1698,1.5728,2.3414
5517.0,3.0634,-4.054,-3.5253,-0.1698,1.5728,2.3414
5522.0,3.0634,-4.054,-3.5253,-0.1698,1.5728,2.3414
5527.0,3.0634,-4.054,-3.5253,-0.1698,1.5728,2.3414
5532.0,3.0634,-4.054,-3.5253,-0.4801,0.5655,2.7135
5537.0,4.2367,-6.3993,-2.7102,-0.4801,0.5655,2.7135
5543.0,4.2367,-6.3993,-2.7102,-0.4801,0.5655,2.7135
5548.0,4.2367,-6.3993,-2.7102,-0.4801,0.5655,2.7135
5552.0,4.2367,-6.3993,-2.7102,-0.4801,0.5655,2.7135
5557.0,4.2367,-6.3993,-2.7102,-0.4801,0.5655,2.7135
5562.0,4.2367,-6.3993,-2.7102,-0.4801,0.5655,2.7135
5568.0,4.8402,-10.4082,-1.17,-0.978,0.9631,2.4453
5572.0,4.8402,-10.4082,-1.17,-0.978,0.9631,2.4453
5577.0,4.8402,-10.4082,-1.17,-0.978,0.9631,2.4453
5582.0,4.8402,-10.4082,-1.17,-0.978,0.9631,2.4453
5587.0,4.8402,-10.4082,-1.17,-0.978,0.9631,2.4453
5592.0,4.8402,-10.4082,-1.17,-0.978,0.9631,2.4453
5597.0,4.8402,-10.4082,-1.17,-0.978,0.9631,2.4453
5602.0,2.8191,-12.8202,-2.805,-0.416,2.1427,1.5082
5608.0,2.8191,-12.8202,-2.805,-0.416,2.1427,1.5082
5612.0,2.8191,-12.8202,-2.805,-0.416,2.1427,1.5082
5617.0,2.8191,-12.8202,-2.805,-0.416,2.1427,1.5082
5622.0,2.8191,-12.8202,-2.805,-0.416,2.1427,1.5082
5627.0,1.4638,-6.9618,-9.8899,-0.416,2.1427,1.5082
5632.0,1.4638,-6.9618,-9.8899,-0.2529,0.2692,0.5485
5637.0,1.4638,-6.9618,-9.8899,-0.2529,0.2692,0.5485
5642.0,1.4638,-6.9618,-9.8899,-0.2529,0.2692,0.5485
5647.0,1.4638,-6.9618,-9.8899,-0.2529,0.2692,0.5485
5652.0,1.4638,-6.9618,-9.8899,-0.2529,0.2692,0.5485
5657.0,0.4341,-11.5951,-7.8995,-0.2529,0.2692,0.5485
5662.0,0.4341,-11.5951,-7.8995,-0.2138,-1.2293,0.6884
5667.0,0.4341,-11.5951,-7.8995,-0.2138,-1.2293,0.6884
5672.0,0.4341,-11.5951,-7.8995,-0.2138,-1.2293,0.6884
5677.0,0.4341,-11.5951,-7.8995,-0.2138,-1.2293,0.6884
5682.0,0.2425,-9.6598,-1.061,-0.2138,-1.2293,0.6884
5687.0,0.2425,-9.6598,-1.061,-0.2138,-1.2293,0.6884
5692.0,0.2425,-9.6598,-1.061,-0.2138,-1.2293,0.6884
5697.0,0.2425,-9.6598,-1.061,0.526,-1.5891,1.5082
5702.0,0.2425,-9.6598,-1.061,0.526,-1.5891,1.5082
5707.0,2.3498,-5.4221,1.7066,0.526,-1.5891,1.5082
5712.0,2.3498,-5.4221,1.7066,0.526,-1.5891,1.5082
5717.0,2.3498,-5.4221,1.7066,0.526,-1.5891,1.5082
5722.0,2.3498,-5.4221,1.7066,0.526,-1.5891,1.5082
5727.0,2.3498,-5.4221,1.7066,0.2285,-1.5946,1.5485
5732.0,2.3498,-5.4221,1.7066,0.2285,-1.5946,1.5485
5737.0,2.6802,-3.0101,-3.2078,0.2285,-1.5946,1.5485
5742.0,2.6802,-3.0101,-3.2078,0.2285,-1.5946,1.5485
5747.0,2.6802,-3.0101,-3.2078,0.2285,-1.5946,1.5485
5752.0,2.6802,-3.0101,-3.2078,0.2285,-1.5946,1.5485
5758.0,2.6802,-3.0101,-3.2078,0.4679,0.3101,-1.1332
5762.0,2.6802,-4.6547,-5.8664,0.4679,0.3101,-1.1332
5767.0,-0.6818,-4.6547,-5.8664,0.4679,0.3101,-1.1332
5773.0,-0.6818,-4.6547,-5.8664,0.4679,0.3101,-1.1332
5778.0,-0.6818,-4.6547,-5.8664,0.4679,0.3101,-1.1332
5783.0,-0.6818,-4.6547,-5.8664,0.4679,0.3101,-1.1332
5787.0,-0.6818,-4.6547,-5.8664,0.4679,0.3101,-1.1332
5792.0,4.1362,-9.6074,-3.1794,-0.0678,-0.5848,0.2315
5797.0,4.1362,-9.6074,-3.1794,-0.0678,-0.5848,0.2315
5802.0,4.1362,-9.6074,-3.1794,-0.0678,-0.5848,0.2315
5807.0,4.1362,-9.6074,-3.1794,-0.0678,-0.5848,0.2315
5812.0,4.1362,-9.6074,-3.1794,-0.0678,-0.5848,0.2315
5817.0,8.3554,-14.1358,2.4222,-0.0678,-0.5848,0.2315
5822.0,8.3554,-14.1358,2.4222,-1.3298,-1.616,1.3134
5827.0,8.3554,-14.1358,2.4222,-1.3298,-1.616,1.3134
5832.0,8.3554,-14.1358,2.4222,-1.3298,-1.616,1.3134
5838.0,8.3554,-14.1358,2.4222,-1.3298,-1.616,1.3134
5842.0,8.3554,-14.1358,2.4222,-1.3298,-1.616,1.3134
5847.0,10.5537,-17.6204,2.2231,-1.3298,-1.616,1.3134
5853.0,10.5537,-17.6204,2.2231,-1.5968,1.9588,0.5437
5857.0,10.5537,-17.6204,2.2231,-1.5968,1.9588,0.5437
5862.0,10.5537,-17.6204,2.2231,-1.5968,1.9588,0.5437
5868.0,10.5537,-17.6204,2.2231,-1.5968,1.9588,0.5437
5872.0,10.5537,-17.6204,2.2231,-1.5968,1.9588,0.5437
5877.0,0.4389,-10.0173,-7.3024,-1.5968,1.9588,0.5437
5882.0,0.4389,-10.0173,-7.3024,0.0739,0.5941,-0.9511
5887.0,0.4389,-10.0173,-7.3024,0.0739,0.5941,-0.9511
5892.0,0.4389,-10.0173,-7.3024,0.0739,0.5941,-0.9511
5897.0,0.4389,-10.0173,-7.3024,0.0739,0.5941,-0.9511
5902.0,1.6553,-10.5655,2.171,0.0739,0.5941,-0.9511
5907.0,1.6553,-10.5655,2.171,0.0739,0.5941,-0.9511
5912.0,1.6553,-10.5655,2.171,0.0489,-2.0118,0.2223
5917.0,1.6553,-10.5655,2.171,0.0489,-2.0118,0.2223
5922.0,1.6553,-10.5655,2.171,0.0489,-2.0118,0.2223
5927.0,3.7003,-20.0419,-0.7198,0.0489,-2.0118,0.2223
5932.0,3.7003,-20.0419,-0.7198,0.0489,-2.0118,0.2223
5937.0,3.7003,-20.0419,-0.7198,0.0489,-2.0118,0.2223
5943.0,3.7003,-20.0419,-0.7198,0.0489,-2.0118,0.2223
5947.0,3.7003,-20.0419,-0.7198,0.0923,-3.4199,1.2749
5952.0,3.7003,-20.0419,-0.7198,0.0923,-3.4199,1.2749
5958.0,-2.9184,-16.5431,-8.454,0.0923,-3.4199,1.2749
5962.0,-2.9184,-16.5431,-8.454,0.0923,-3.4199,1.2749
5967.0,-2.9184,-16.5431,-8.454,0.0923,-3.4199,1.2749
5972.0,-2.9184,-16.5431,-8.454,0.0923,-3.4199,1.2749
5977.0,-2.9184,-16.5431,-8.454,0.6897,-2.2647,0.1698
5982.0,1.162,-7.6196,4.6163,0.6897,-2.2647,0.1698
5987.0,1.162,-7.6196,4.6163,0.6897,-2.2647,0.1698
5992.0,1.162,-7.6196,4.6163,0.6897,-2.2647,0.1698
5997.0,1.162,-7.6196,4.6163,0.6897,-2.2647,0.1698
6002.0,1.162,-7.6196,4.6163,0.6897,-2.2647,0.1698
6008.0,0.5634,-3.911,3.351,0.3586,0.0126,-0.1857
6012.0,0.5634,-3.911,3.351,0.3586,0.0126,-0.1857
6017.0,0.5634,-3.911,3.351,0.3586,0.0126,-0.1857
6022.0,0.5634,-3.911,3.351,0.3586,0.0126,-0.1857
6027.0,0.5634,-3.911,3.351,0.3586,0.0126,-0.1857
6033.0,0.5634,-3.911,3.351,0.3586,0.0126,-0.1857
6037.0,1.8373,-5.5937,1.9957,0.3586,0.0126,-0.1857
6042.0,1.8373,-5.5937,1.9957,-0.0287,1.4133,-0.0147
6047.0,1.8373,-5.5937,1.9957,-0.0287,1.4133,-0.0147
6052.0,1.8373,-5.5937,1.9957,-0.0287,1.4133,-0.0147
6057.0,1.8373,-5.5937,1.9957,-0.0287,1.4133,-0.0147
6062.0,1.8373,-5.5937,1.9957,-0.0287,1.4133,-0.0147
6067.0,2.709,-12.2768,2.28,-0.0287,1.4133,-0.0147
6072.0,2.709,-12.2768,2.28,-0.3476,1.7322,0.2529
6077.0,2.709,-12.2768,2.28,-0.3476,1.7322,0.2529
6083.0,2.709,-12.2768,2.28,-0.3476,1.7322,0.2529
6087.0,2.709,-12.2768,2.28,-0.3476,1.7322,0.2529
6092.0,2.7808,-13.4828,1.8393,-0.3476,1.7322,0.2529
6097.0,2.7808,-13.4828,1.8393,-0.3476,1.7322,0.2529
6102.0,2.7808,-13.4828,1.8393,-0.1112,1.8544,0.9071
6108.0,2.7808,-13.4828,1.8393,-0.1112,1.8544,0.9071
6112.0,2.7808,-13.4828,1.8393,-0.1112,1.8544,0.9071
6117.0,2.7808,-13.4828,1.4601,-0.1112,1.8544,0.9071
6123.0,2.2731,-8.921,1.4601,-0.1112,1.8544,0.9071
6127.0,2.2731,-8.921,1.4601,-0.1112,1.8544,0.9071
6133.0,2.2731,-8.921,1.4601,0.3433,2.2087,2.5082
6137.0,2.2731,-8.921,1.4601,0.3433,2.2087,2.5082
6143.0,2.2731,-8.921,1.4601,0.3433,2.2087,2.5082
6147.0,4.3229,-6.161,-17.5008,0.3433,2.2087,2.5082
6152.0,4.3229,-6.161,-17.5008,0.3433,2.2087,2.5082
6157.0,4.3229,-6.161,-17.5008,0.3433,2.2087,2.5082
6162.0,4.3229,-6.161,-17.5008,-0.033,-0.9599,1.0806
6167.0,4.3229,-6.161,-17.5008,-0.033,-0.9599,1.0806
6172.0,3.2932,-7.8913,-2.1463,-0.033,-0.9599,1.0806
6177.0,3.2932,-7.8913,-2.1463,-0.033,-0.9599,1.0806
6182.0,3.2932,-7.8913,-2.1463,-0.033,-0.9599,1.0806
6187.0,3.2932,-7.8913,-2.1463,-0.033,-0.9599,1.0806
6192.0,3.2932,-7.8913,-2.1463,0.0428,-1.5909,-0.2517
6197.0,2.0097,-8.1964,2.0525,0.0428,-1.5909,-0.2517
6202.0,2.0097,-8.1964,2.0525,0.0428,-1.5909,-0.2517
6207.0,2.0097,-8.1964,2.0525,0.0428,-1.5909,-0.2517
6212.0,2.0097,-8.1964,2.0525,0.0428,-1.5909,-0.2517
6217.0,2.0097,-8.1964,2.0525,0.0428,-1.5909,-0.2517
6222.0,0.9705,-7.4528,0.7161,0.2181,-1.0937,-0.3861
6227.0,0.9705,-7.4528,0.7161,0.2181,-1.0937,-0.3861
6232.0,0.9705,-7.4528,0.7161,0.2181,-1.0937,-0.3861
6238.0,0.9705,-7.4528,0.7161,0.2181,-1.0937,-0.3861
6242.0,0.9705,-7.4528,0.7161,0.2181,-1.0937,-0.3861
6247.0,0.9705,-7.4528,0.7161,0.2181,-1.0937,-0.3861
6252.0,-0.6196,-8.2965,-3.2173,0.2181,-1.0937,-0.3861
6257.0,-0.6196,-8.2965,-3.2173,-0.1191,0.1488,0.1105
6263.0,-0.6196,-8.2965,-3.2173,-0.1191,0.1488,0.1105
6267.0,-0.6196,-8.2965,-3.2173,-0.1191,0.1488,0.1105
6272.0,-0.6196,-8.2965,-3.2173,-0.1191,0.1488,0.1105
6277.0,-0.6196,-8.2965,-3.2173,-0.1191,0.1488,0.1105
6282.0,-0.2077,-8.2679,-0.3502,-0.1191,0.1488,0.1105
6288.0,-0.2077,-8.2679,-0.3502,0.0984,-0.2684,-0.5822
6293.0,-0.2077,-8.2679,-0.3502,0.0984,-0.2684,-0.5822
6297.0,-0.2077,-8.2679,-0.3502,0.0984,-0.2684,-0.5822
6302.0,-0.2077,-8.2679,-0.3502,0.0984,-0.2684,-0.5822
6307.0,0.4628,-7.0142,0.3607,0.0984,-0.2684,-0.5822
6312.0,0.4628,-7.0142,0.3607,0.0984,-0.2684,-0.5822
6317.0,0.4628,-7.0142,0.3607,-0.0647,-0.3997,-0.6066
6322.0,0.4628,-7.0142,0.3607,-0.0647,-0.3997,-0.6066
6327.0,0.4628,-7.0142,0.3607,-0.0647,-0.3997,-0.6066
6332.0,0.4628,-7.0142,0.3607,-0.0647,-0.3997,-0.6066
6337.0,0.391,-8.3728,1.0952,-0.0647,-0.3997,-0.6066
6342.0,0.391,-8.3728,1.0952,-0.0647,-0.3997,-0.6066
6348.0,0.391,-8.3728,1.0952,-0.0941,0.6155,-0.358
6352.0,0.391,-8.3728,1.0952,-0.0941,0.6155,-0.358
6357.0,0.391,-8.3728,1.0952,-0.0941,0.6155,-0.358
6362.0,0.7214,-10.6322,-1.8762,-0.0941,0.6155,-0.358
6367.0,0.7214,-10.6322,-1.8762,-0.0941,0.6155,-0.358
6373.0,0.7214,-10.6322,-1.8762,-0.0941,0.6155,-0.358
6377.0,0.7214,-10.6322,-1.8762,-0.0941,0.6155,-0.358
6383.0,0.7214,-10.6322,-1.8762,-0.0323,1.2906,-0.6481
6387.0,2.6659,-8.144,-2.5159,-0.0323,1.2906,-0.6481
6392.0,2.6659,-8.144,-2.5159,-0.0323,1.2906,-0.6481
6397.0,2.6659,-8.144,-2.5159,-0.0323,1.2906,-0.6481
6402.0,2.6659,-8.144,-2.5159,-0.0323,1.2906,-0.6481
6407.0,2.6659,-8.144,-2.5159,-0.0323,1.2906,-0.6481
6412.0,2.6659,-8.144,-2.5159,-0.262,1.0224,-1.1179
6417.0,4.3612,-7.7674,-3.023,-0.262,1.0224,-1.1179
6422.0,4.3612,-7.7674,-3.023,-0.262,1.0224,-1.1179
6427.0,4.3612,-7.7674,-3.023,-0.262,1.0224,-1.1179
6433.0,4.3612,-7.7674,-3.023,-0.262,1.0224,-1.1179
6437.0,4.3612,-7.7674,-3.023,-0.262,1.0224,-1.1179
6442.0,4.3612,-7.7674,-3.023,-0.4612,1.0682,-1.5003
6447.0,4.8066,-8.797,-4.3452,-0.4612,1.0682,-1.5003
6454.0,4.8066,-8.797,-4.3452,-0.4612,1.0682,-1.5003
6457.0,4.8066,-8.797,-4.3452,-0.4612,1.0682,-1.5003
6464.0,4.8066,-8.797,-4.3452,-0.4612,1.0682,-1.5003
6468.0,4.8066,-8.797,-4.3452,-0.4612,1.0682,-1.5003
6472.0,3.8153,-11.5475,-4.7385,-0.1362,0.1507,-1.9249
6478.0,3.8153,-11.5475,-4.7385,-0.1362,0.1507,-1.9249
6482.0,3.8153,-11.5475,-4.7385,-0.1362,0.1507,-1.9249
6487.0,3.8153,-11.5475,-4.7385,-0.1362,0.1507,-1.9249
6492.0,3.8153,-11.5475,-4.7385,-0.1362,0.1507,-1.9249
6497.0,3.8153,-11.5475,-4.7385,-0.1362,0.1507,-1.9249
6502.0,2.4216,-13.2063,-2.6297,0.2126,-0.8909,-2.2144
6507.0,2.4216,-13.2063,-2.6297,0.2126,-0.8909,-2.2144
6513.0,2.4216,-13.2063,-2.6297,0.2126,-0.8909,-2.2144
6517.0,2.4216,-13.2063,-2.6297,0.2126,-0.8909,-2.2144
6522.0,2.4216,-13.2063,-2.6297,0.2126,-0.8909,-2.2144
6528.0,2.3306,-12.0909,-3.1889,0.2126,-0.8909,-2.2144
6532.0,2.3306,-12.0909,-3.1889,0.2126,-0.8909,-2.2144
6537.0,2.3306,-12.0909,-3.1889,0.4081,-0.484,-2.8448
6542.0,2.3306,-12.0909,-3.1889,0.4081,-0.484,-2.8448
6547.0,2.3306,-12.0909,-3.1889,0.4081,-0.484,-2.8448
6552.0,2.3881,-10.8896,-1.3075,0.4081,-0.484,-2.8448
6557.0,2.3881,-10.8896,-1.3075,0.4081,-0.484,-2.8448
6562.0,2.3881,-10.8896,-1.3075,0.4081,-0.484,-2.8448
6567.0,2.3881,-10.8896,-1.3075,0.4081,-0.484,-2.8448
6572.0,2.3881,-10.8896,-1.3075,0.1833,-0.1218,-2.868
6577.0,2.3881,-10.8896,-1.3075,0.1833,-0.1218,-2.868
6582.0,2.4743,-10.7705,-1.7198,0.1833,-0.1218,-2.868
6587.0,2.4743,-10.7705,-1.7198,0.1833,-0.1218,-2.868
6592.0,2.4743,-10.7705,-1.7198,0.1833,-0.1218,-2.868
6597.0,2.4743,-10.7705,-1.7198,0.1833,-0.1218,-2.868
6602.0,2.4743,-10.7705,-1.7198,0.1137,-1.1022,-1.8039
6608.0,3.8775,-12.4055,-3.8476,0.1137,-1.1022,-1.8039
6612.0,3.8775,-12.4055,-3.8476,0.1137,-1.1022,-1.8039
6617.0,3.8775,-12.4055,-3.8476,0.1137,-1.1022,-1.8039
6622.0,3.8775,-12.4055,-3.8476,0.1137,-1.1022,-1.8039
6627.0,3.8775,-12.4055,-3.8476,0.1137,-1.1022,-1.8039
6632.0,3.8775,-12.4055,-3.8476,0.0593,-0.8744,-1.0513
6637.0,2.1774,-12.7153,-4.1841,0.0593,-0.8744,-1.0513
6642.0,2.1774,-12.7153,-4.1841,0.0593,-0.8744,-1.0513
6648.0,2.1774,-12.7153,-4.1841,0.0593,-0.8744,-1.0513
6652.0,2.1774,-12.7153,-4.1841,0.0593,-0.8744,-1.0513
6657.0,2.1774,-12.7153,-4.1841,0.0593,-0.8744,-1.0513
6663.0,0.798,-10.2128,-2.8619,0.57,-1.1883,-0.5034
6667.0,0.798,-10.2128,-2.8619,0.57,-1.1883,-0.5034
6672.0,0.798,-10.2128,-2.8619,0.57,-1.1883,-0.5034
6677.0,0.798,-10.2128,-2.8619,0.57,-1.1883,-0.5034
6682.0,0.798,-10.2128,-2.8619,0.57,-1.1883,-0.5034
6687.0,1.8421,-9.3166,-2.5538,0.57,-1.1883,-0.5034
6692.0,1.8421,-9.3166,-2.5538,0.7612,0.0212,-0.402
6697.0,1.8421,-9.3166,-2.5538,0.7612,0.0212,-0.402
6702.0,1.8421,-9.3166,-2.5538,0.7612,0.0212,-0.402
6707.0,1.8421,-9.3166,-2.5538,0.7612,0.0212,-0.402
6712.0,1.8421,-9.3166,-2.5538,0.7612,0.0212,-0.402
6717.0,2.1342,-9.431,-3.2647,0.7612,0.0212,-0.402
6723.0,2.1342,-9.431,-3.2647,0.7612,0.0212,-0.402
6727.0,2.1342,-9.431,-3.2647,0.4698,1.695,-0.1539
6733.0,2.1342,-9.431,-3.2647,0.4698,1.695,-0.1539
6737.0,2.1342,-9.431,-3.2647,0.4698,1.695,-0.1539
6742.0,2.0002,-7.2955,-4.0751,0.4698,1.695,-0.1539
6747.0,2.0002,-7.2955,-4.0751,0.4698,1.695,-0.1539
6752.0,2.0002,-7.2955,-4.0751,0.4698,1.695,-0.1539
6757.0,2.0002,-7.2955,-4.0751,0.4221,1.0902,0.813
6762.0,2.0002,-7.2955,-4.0751,0.4221,1.0902,0.813
6767.0,2.0816,-4.6022,-3.5111,0.4221,1.0902,0.813
6772.0,2.0816,-4.6022,-3.5111,0.4221,1.0902,0.813
6777.0,2.0816,-4.6022,-3.5111,0.4221,1.0902,0.813
6783.0,2.0816,-4.6022,-3.5111,0.4221,1.0902,0.813
6787.0,2.0816,-4.6022,-3.5111,0.457,0.1488,1.4881
6792.0,2.2971,-4.2352,-1.8904,0.457,0.1488,1.4881
6797.0,2.2971,-4.2352,-1.8904,0.457,0.1488,1.4881
6802.0,2.2971,-4.2352,-1.8904,0.457,0.1488,1.4881
6808.0,2.2971,-4.2352,-1.8904,0.457,0.1488,1.4881
6812.0,2.2971,-4.2352,-1.8904,0.457,0.1488,1.4881
6817.0,3.0634,-6.1801,-0.6914,0.366,0.1666,1.8589
6822.0,3.0634,-6.1801,-0.6914,0.366,0.1666,1.8589
6827.0,3.0634,-6.1801,-0.6914,0.366,0.1666,1.8589
6832.0,3.0634,-6.1801,-0.6914,0.366,0.1666,1.8589
6837.0,3.0634,-6.1801,-0.6914,0.366,0.1666,1.8589
6843.0,3.0634,-6.1801,-0.6914,0.366,0.1666,1.8589
6848.0,2.685,-8.5921,-1.2743,0.1192,1.4305,1.8723
6852.0,2.685,-8.5921,-1.2743,0.1192,1.4305,1.8723
6857.0,2.685,-8.5921,-1.2743,0.1192,1.4305,1.8723
6862.0,2.685,-8.5921,-1.2743,0.1192,1.4305,1.8723
6867.0,2.685,-8.5921,-1.2743,0.1192,1.4305,1.8723
6872.0,2.3402,-9.0926,-2.8429,0.1192,1.4305,1.8723
6877.0,2.3402,-9.0926,-2.8429,0.1192,1.4305,1.8723
6882.0,2.3402,-9.0926,-2.8429,0.0562,2.5135,1.631
6887.0,2.3402,-9.0926,-2.8429,0.0562,2.5135,1.631
6893.0,2.3402,-9.0926,-2.8429,0.0562,2.5135,1.631
6897.0,1.8325,-8.2536,-4.8286,0.0562,2.5135,1.631
6902.0,1.8325,-8.2536,-4.8286,0.0562,2.5135,1.631
6908.0,1.8325,-8.2536,-4.8286,0.0562,2.5135,1.631
6912.0,1.8325,-8.2536,-4.8286,0.3067,2.1452,1.0617
6917.0,1.8325,-8.2536,-4.8286,0.3067,2.1452,1.0617
6922.0,2.7233,-7.5481,-5.7337,0.3067,2.1452,1.0617
6927.0,2.7233,-7.5481,-5.7337,0.3067,2.1452,1.0617
6932.0,2.7233,-7.5481,-5.7337,0.3067,2.1452,1.0617
6937.0,2.7233,-7.5481,-5.7337,0.3067,2.1452,1.0617
6942.0,2.7233,-7.5481,-5.7337,-0.1722,0.494,1.3115
6947.0,2.7233,-7.5481,-5.7337,-0.1722,0.494,1.3115
6952.0,4.5815,-9.6312,-3.4258,-0.1722,0.494,1.3115
6958.0,4.5815,-9.6312,-3.4258,-0.1722,0.494,1.3115
6962.0,4.5815,-9.6312,-3.4258,-0.1722,0.494,1.3115
6967.0,4.5815,-9.6312,-3.4258,-0.1722,0.494,1.3115
6972.0,4.5815,-9.6312,-3.4258,-0.1722,0.494,1.3115
6977.0,4.5815,-9.6312,-3.4258,-0.4722,-0.2727,1.62
6982.0,5.0126,-9.2165,-2.2363,-0.4722,-0.2727,1.62
6987.0,5.0126,-9.2165,-2.2363,-0.4722,-0.2727,1.62
6992.0,5.0126,-9.2165,-2.2363,-0.4722,-0.2727,1.62
6997.0,5.0126,-9.2165,-2.2363,-0.4722,-0.2727,1.62
7002.0,5.0126,-9.2165,-2.2363,-0.4722,-0.2727,1.62
7007.0,4.002,-5.2982,-2.8097,-0.6475,0.1739,0.6286
7012.0,4.002,-5.2982,-2.8097,-0.6475,0.1739,0.6286
7017.0,4.002,-5.2982,-2.8097,-0.6475,0.1739,0.6286
7022.0,4.002,-5.2982,-2.8097,-0.6475,0.1739,0.6286
7027.0,4.002,-5.2982,-2.8097,-0.6475,0.1739,0.6286
7032.0,3.2214,-3.6441,-3.459,-0.6475,0.1739,0.6286
7038.0,3.2214,-3.6441,-3.459,-0.7562,0.5355,-0.694
7042.0,3.2214,-3.6441,-3.459,-0.7562,0.5355,-0.694
7048.0,3.2214,-3.6441,-3.459,-0.7562,0.5355,-0.694
7052.0,3.2214,-3.6441,-3.459,-0.7562,0.5355,-0.694
7057.0,3.2214,-3.6441,-3.459,-0.7562,0.5355,-0.694
7062.0,1.3919,-5.9465,-2.6865,-0.7562,0.5355,-0.694
7067.0,1.3919,-5.9465,-2.6865,-0.1576,0.7738,0.4814
7072.0,1.3919,-5.9465,-2.6865,-0.1576,0.7738,0.4814
7077.0,1.3919,-5.9465,-2.6865,-0.1576,0.7738,0.4814
7082.0,1.3919,-5.9465,-2.6865,-0.1576,0.7738,0.4814
7087.0,0.1036,-8.6445,-3.5348,-0.1576,0.7738,0.4814
7093.0,0.1036,-8.6445,-3.5348,-0.1576,0.7738,0.4814
7098.0,0.1036,-8.6445,-3.5348,0.2871,-1.5824,1.5944
7103.0,0.1036,-8.6445,-3.5348,0.2871,-1.5824,1.5944
7107.0,0.1036,-8.6445,-3.5348,0.2871,-1.5824,1.5944
7112.0,0.1036,-8.6445,-3.5348,0.2871,-1.5824,1.5944
7117.0,3.6812,-11.1328,-3.5348,0.2871,-1.5824,1.5944
7126.0,3.6812,-11.1328,-3.5348,0.2871,-1.5824,1.5944
7128.0,3.6812,-11.1328,-3.5348,0.1625,-2.0912,0.2547
7132.0,3.6812,-11.1328,-3.5348,0.1625,-2.0912,0.2547
7137.0,3.6812,-11.1328,-3.5348,0.1625,-2.0912,0.2547
7142.0,7.2348,-13.5829,-4.6438,0.1625,-2.0912,0.2547
7147.0,7.2348,-13.5829,-4.6438,0.1625,-2.0912,0.2547
7152.0,7.2348,-13.5829,-4.6438,0.1625,-2.0912,0.2547
7157.0,7.2348,-13.5829,-4.6438,0.1625,-2.0912,0.2547
7162.0,7.2348,-13.5829,-4.6438,-0.5956,-0.1957,-1.73
7167.0,4.7013,-11.1566,-1.4449,-0.5956,-0.1957,-1.73
7172.0,4.7013,-11.1566,-1.4449,-0.5956,-0.1957,-1.73
7177.0,4.7013,-11.1566,-1.4449,-0.5956,-0.1957,-1.73
7182.0,4.7013,-11.1566,-1.4449,-0.5956,-0.1957,-1.73
7187.0,4.7013,-11.1566,-1.4449,-0.5956,-0.1957,-1.73
7192.0,4.7013,-11.1566,-1.4449,-0.493,-0.1676,-0.4789
7197.0,2.345,-7.5958,4.1188,-0.493,-0.1676,-0.4789
7202.0,2.345,-7.5958,4.1188,-0.493,-0.1676,-0.4789
7208.0,2.345,-7.5958,4.1188,-0.493,-0.1676,-0.4789
7213.0,2.345,-7.5958,4.1188,-0.493,-0.1676,-0.4789
7218.0,2.345,-7.5958,4.1188,-0.493,-0.1676,-0.4789
7223.0,2.345,-7.5958,4.1188,-0.493,-0.1676,-0.4789
7228.0,1.071,-10.718,3.3416,-0.1466,-0.7894,0.0837
7233.0,1.071,-10.718,3.3416,-0.1466,-0.7894,0.0837
7237.0,1.071,-10.718,3.3416,-0.1466,-0.7894,0.0837
7242.0,1.071,-10.718,3.3416,-0.1466,-0.7894,0.0837
7248.0,1.071,-10.718,3.3416,-0.1466,-0.7894,0.0837
7252.0,1.071,-10.718,3.3416,-0.1466,-0.7894,0.0837
7257.0,1.5739,-17.7872,2.5312,-0.1466,-0.7894,0.0837
7265.0,1.5739,-17.7872,2.5312,0.493,-1.3386,0.3121
7267.0,1.5739,-17.7872,2.5312,0.493,-1.3386,0.3121
7281.0,1.5739,-17.7872,2.5312,0.493,-1.3386,0.3121
7281.0,1.5739,-17.7872,2.5312,0.493,-1.3386,0.3121
7282.0,1.5739,-17.7872,2.5312,0.493,-1.3386,0.3121
7287.0,-1.745,-18.9456,-30.974,0.493,-1.3386,0.3121
7292.0,-1.745,-18.9456,-30.974,0.6158,-7.7314,0.3946
7297.0,-1.745,-18.9456,-30.974,0.6158,-7.7314,0.3946
7302.0,-1.745,-18.9456,-30.974,0.6158,-7.7314,0.3946
7307.0,-1.745,-18.9456,-30.974,0.6158,-7.7314,0.3946
7312.0,0.64,-11.7,6.4551,0.6158,-7.7314,0.3946
7317.0,0.64,-11.7,6.4551,0.6158,-7.7314,0.3946
7322.0,0.64,-11.7,6.4551,0.3061,-1.8725,0.5198
7327.0,0.64,-11.7,6.4551,0.3061,-1.8725,0.5198
7332.0,0.64,-11.7,6.4551,0.3061,-1.8725,0.5198
7337.0,-0.1454,-8.859,5.6305,0.3061,-1.8725,0.5198
7342.0,-0.1454,-8.859,5.6305,0.3061,-1.8725,0.5198
7347.0,-0.1454,-8.859,5.6305,0.3061,-1.8725,0.5198
7352.0,-0.1454,-8.859,5.6305,0.3061,-1.8725,0.5198
7357.0,-0.1454,-8.859,5.6305,0.2028,2.676,0.0721
7362.0,0.7454,-9.288,3.6212,0.2028,2.676,0.0721
7367.0,0.7454,-9.288,3.6212,0.2028,2.676,0.0721
7372.0,0.7454,-9.288,3.6212,0.2028,2.676,0.0721
7377.0,0.7454,-9.288,3.6212,0.2028,2.676,0.0721
7382.0,0.7454,-9.288,3.6212,0.2028,2.676,0.0721
7387.0,0.7454,-9.288,3.6212,-0.2816,4.9888,1.094
7392.0,1.1812,-12.4579,1.6308,-0.2816,4.9888,1.094
7397.0,1.1812,-12.4579,1.6308,-0.2816,4.9888,1.094
7402.0,1.1812,-12.4579,1.6308,-0.2816,4.9888,1.094
7407.0,1.1812,-12.4579,1.6308,-0.2816,4.9888,1.094
7412.0,1.1812,-12.4579,1.6308,-0.2816,4.9888,1.094
7417.0,1.7607,-10.6799,-0.6156,0.3098,4.8232,1.7281
7422.0,1.7607,-10.6799,-0.6156,0.3098,4.8232,1.7281
7427.0,1.7607,-10.6799,-0.6156,0.3098,4.8232,1.7281
7432.0,1.7607,-10.6799,-0.6156,0.3098,4.8232,1.7281
7438.0,1.7607,-10.6799,-0.6156,0.3098,4.8232,1.7281
7442.0,5.0365,-6.8665,-11.6907,0.3098,4.8232,1.7281
7448.0,5.0365,-6.8665,-11.6907,0.1271,1.0566,1.9218
7452.0,5.0365,-6.8665,-11.6907,0.1271,1.0566,1.9218
7457.0,5.0365,-6.8665,-11.6907,0.1271,1.0566,1.9218
7462.0,5.0365,-6.8665,-11.6907,0.1271,1.0566,1.9218
7467.0,5.0365,-6.8665,-11.6907,0.1271,1.0566,1.9218
7472.0,3.1112,-8.6159,-0.734,0.1271,1.0566,1.9218
7478.0,3.1112,-8.6159,-0.734,0.0526,-1.134,1.0513
7482.0,3.1112,-8.6159,-0.734,0.0526,-1.134,1.0513
7487.0,3.1112,-8.6159,-0.734,0.0526,-1.134,1.0513
7492.0,3.1112,-8.6159,-0.734,0.0526,-1.134,1.0513
7497.0,3.5135,-6.5661,0.0811,0.0526,-1.134,1.0513
7502.0,3.5135,-6.5661,0.0811,0.0526,-1.134,1.0513
7508.0,3.5135,-6.5661,0.0811,0.0526,-1.134,1.0513
7512.0,3.5135,-6.5661,0.0811,0.212,-0.8133,0.6304
7517.0,3.5135,-6.5661,0.0811,0.212,-0.8133,0.6304
7523.0,5.5921,-4.2447,-3.8334,0.212,-0.8133,0.6304
7528.0,5.5921,-4.2447,-3.8334,0.212,-0.8133,0.6304
7532.0,5.5921,-4.2447,-3.8334,0.212,-0.8133,0.6304
7537.0,5.5921,-4.2447,-3.8334,0.212,-0.8133,0.6304
7542.0,5.5921,-4.2447,-3.8334,-0.3652,1.0181,-0.3837
7548.0,2.8526,-6.8379,-2.2979,-0.3652,1.0181,-0.3837
7552.0,2.8526,-6.8379,-2.2979,-0.3652,1.0181,-0.3837
7557.0,2.8526,-6.8379,-2.2979,-0.3652,1.0181,-0.3837
7562.0,2.8526,-6.8379,-2.2979,-0.3652,1.0181,-0.3837
7567.0,2.8526,-6.8379,-2.2979,-0.3652,1.0181,-0.3837
7573.0,2.8526,-6.8379,-2.2979,-0.1062,0.3425,-0.9786
7578.0,1.1477,-7.2955,-0.0895,-0.1062,0.3425,-0.9786
7586.0,1.1477,-7.2955,-0.0895,-0.1062,0.3425,-0.9786
7588.0,1.1477,-7.2955,-0.0895,-0.1062,0.3425,-0.9786
7592.0,1.1477,-7.2955,-0.0895,-0.1062,0.3425,-0.9786
7597.0,1.1477,-7.2955,-0.0895,-0.1062,0.3425,-0.9786
7603.0,1.1477,-7.2955,-0.0895,-0.1062,0.3425,-0.9786
7608.0,-0.4998,-7.6482,-2.6818,0.1668,-0.2665,-1.0513
7612.0,-0.4998,-7.6482,-2.6818,0.1668,-0.2665,-1.0513
7617.0,-0.4998,-7.6482,-2.6818,0.1668,-0.2665,-1.0513
7623.0,-0.4998,-7.6482,-2.6818,0.1668,-0.2665,-1.0513
7627.0,-0.4998,-7.6482,-2.6818,0.1668,-0.2665,-1.0513
7632.0,-0.4998,-7.6482,-2.6818,0.1668,-0.2665,-1.0513
7637.0,-1.2134,-8.7017,-1.7624,0.1668,-0.2665,-1.0513
7642.0,-1.2134,-8.7017,-1.7624,0.4173,-1.8744,-0.8186
7647.0,-1.2134,-8.7017,-1.7624,0.4173,-1.8744,-0.8186
7652.0,-1.2134,-8.7017,-1.7624,0.4173,-1.8744,-0.8186
7657.0,-1.2134,-8.7017,-1.7624,0.4173,-1.8744,-0.8186
7662.0,-0.9452,-8.3203,1.5407,0.4173,-1.8744,-0.8186
7667.0,-0.9452,-8.3203,1.5407,0.4173,-1.8744,-0.8186
7672.0,-0.9452,-8.3203,1.5407,0.2371,-0.8072,-1.0452
7678.0,-0.9452,-8.3203,1.5407,0.2371,-0.8072,-1.0452
7682.0,-0.9452,-8.3203,1.5407,0.2371,-0.8072,-1.0452
7687.0,-0.9452,-8.3203,1.5407,0.2371,-0.8072,-1.0452
7692.0,-0.7968,-8.8971,1.6118,0.2371,-0.8072,-1.0452
7697.0,-0.7968,-8.8971,1.6118,0.2371,-0.8072,-1.0452
7703.0,-0.7968,-8.8971,1.6118,-0.0916,1.8715,-0.4154
7708.0,-0.7968,-8.8971,1.6118,-0.0916,1.8715,-0.4154
7712.0,-0.7968,-8.8971,1.6118,-0.0916,1.8715,-0.4154
7717.0,-0.7968,-8.8971,1.6118,-0.0916,1.8715,-0.4154
7725.0,0.7454,-9.1402,-2.8287,-0.0916,1.8715,-0.4154
7727.0,0.7454,-9.1402,-2.8287,-0.0916,1.8715,-0.4154
7732.0,0.7454,-9.1402,-2.8287,-0.0916,1.8715,-0.4154
7737.0,0.7454,-9.1402,-2.8287,-0.0054,1.9979,-0.7893
7742.0,0.7454,-9.1402,-2.8287,-0.0054,1.9979,-0.7893
7747.0,2.321,-11.4188,-4.5395,-0.0054,1.9979,-0.7893
7753.0,2.321,-11.4188,-4.5395,-0.0054,1.9979,-0.7893
7758.0,2.321,-11.4188,-4.5395,-0.0054,1.9979,-0.7893
7762.0,2.321,-11.4188,-4.5395,-0.0054,1.9979,-0.7893
7767.0,2.321,-11.4188,-4.5395,0.1399,0.9973,-1.4508
7772.0,2.321,-11.4188,-4.5395,0.1399,0.9973,-1.4508
7777.0,1.866,-14.0119,-1.6582,0.1399,0.9973,-1.4508
7782.0,1.866,-14.0119,-1.6582,0.1399,0.9973,-1.4508
7787.0,1.866,-14.0119,-1.6582,0.1399,0.9973,-1.4508
7792.0,1.866,-14.0119,-1.6582,0.1399,0.9973,-1.4508
7797.0,1.866,-14.0119,-1.6582,0.3623,0.8709,-2.4307
7802.0,2.2205,-12.682,-4.7765,0.3623,0.8709,-2.4307
7807.0,2.2205,-12.682,-4.7765,0.3623,0.8709,-2.4307
7812.0,2.2205,-12.682,-4.7765,0.3623,0.8709,-2.4307
7817.0,2.2205,-12.682,-4.7765,0.3623,0.8709,-2.4307
7822.0,2.2205,-12.682,-4.7765,0.3623,0.8709,-2.4307
7827.0,2.2205,-12.682,-4.7765,0.4949,0.7066,-3.2224
7832.0,1.5595,-13.3779,-2.1178,0.4949,0.7066,-3.2224
7837.0,1.5595,-13.3779,-2.1178,0.4949,0.7066,-3.2224
7845.0,1.5595,-13.3779,-2.1178,0.4949,0.7066,-3.2224
7847.0,1.5595,-13.3779,-2.1178,0.4949,0.7066,-3.2224
7852.0,1.5595,-13.3779,-2.1178,0.4949,0.7066,-3.2224
7857.0,3.116,-10.8992,-1.9046,0.4949,0.7066,-3.2224
7863.0,3.116,-10.8992,-1.9046,0.5798,0.0181,-2.7514
7868.0,3.116,-10.8992,-1.9046,0.5798,0.0181,-2.7514
7873.0,3.116,-10.8992,-1.9046,0.5798,0.0181,-2.7514
7878.0,3.116,-10.8992,-1.9046,0.5798,0.0181,-2.7514
7882.0,3.116,-10.8992,-1.9046,0.5798,0.0181,-2.7514
7888.0,5.1036,-9.9935,-1.9046,0.0129,-0.1175,-2.2602
7893.0,5.1036,-9.9935,-1.9046,0.0129,-0.1175,-2.2602
7897.0,5.1036,-9.9935,-1.9046,0.0129,-0.1175,-2.2602
7903.0,5.1036,-9.9935,-1.9046,0.0129,-0.1175,-2.2602
7908.0,5.1036,-9.9935,-1.9046,0.0129,-0.1175,-2.2602
7913.0,5.1036,-9.9935,-1.9046,0.0129,-0.1175,-2.2602
7917.0,7.0576,-12.8869,-3.2742,0.0129,-0.1175,-2.2602
7922.0,7.0576,-12.8869,-3.2742,-1.3518,-0.3533,-1.694
7928.0,7.0576,-12.8869,-3.2742,-1.3518,-0.3533,-1.694
7932.0,7.0576,-12.8869,-3.2742,-1.3518,-0.3533,-1.694
7937.0,7.0576,-12.8869,-3.2742,-1.3518,-0.3533,-1.694
7942.0,7.0576,-12.8869,-3.2742,-1.3518,-0.3533,-1.694
7947.0,4.5336,-13.478,-3.6012,-1.3518,-0.3533,-1.694
7952.0,4.5336,-13.478,-3.6012,-0.3628,-0.6135,-1.5083
7957.0,4.5336,-13.478,-3.6012,-0.3628,-0.6135,-1.5083
7963.0,4.5336,-13.478,-3.6012,-0.3628,-0.6135,-1.5083
7967.0,4.5336,-13.478,-3.6012,-0.3628,-0.6135,-1.5083
7972.0,2.5653,-9.5264,-3.1273,-0.3628,-0.6135,-1.5083
7977.0,2.5653,-9.5264,-3.1273,-0.3628,-0.6135,-1.5083
7982.0,2.5653,-9.5264,-3.1273,0.4833,0.0737,-0.818
7987.0,2.5653,-9.5264,-3.1273,0.4833,0.0737,-0.818
7992.0,2.5653,-9.5264,-3.1273,0.4833,0.0737,-0.818
7997.0,1.5404,-7.019,-4.2789,0.4833,0.0737,-0.818
8002.0,1.5404,-7.019,-4.2789,0.4833,0.0737,-0.818
8008.0,1.5404,-7.019,-4.2789,0.4833,0.0737,-0.818
8012.0,1.5404,-7.019,-4.2789,0.2334,0.1983,0.0238
8017.0,1.5404,-7.019,-4.2789,0.2334,0.1983,0.0238
8023.0,1.5404,-7.019,-4.2789,0.2334,0.1983,0.0238
8027.0,1.1716,-5.9703,-3.6628,0.2334,0.1983,0.0238
8032.0,1.1716,-5.9703,-3.6628,0.2334,0.1983,0.0238
8038.0,1.1716,-5.9703,-3.6628,0.2334,0.1983,0.0238
8042.0,1.1716,-5.9703,-3.6628,0.0911,-0.1199,0.7678
8047.0,1.1716,-5.9703,-3.6628,0.0911,-0.1199,0.7678
8052.0,1.6218,-5.6795,-2.2126,0.0911,-0.1199,0.7678
8057.0,1.6218,-5.6795,-2.2126,0.0911,-0.1199,0.7678
8062.0,1.6218,-5.6795,-2.2126,0.0911,-0.1199,0.7678
8067.0,1.6218,-5.6795,-2.2126,0.0911,-0.1199,0.7678
8072.0,1.6218,-5.6795,-2.2126,0.0911,-0.1199,0.7678
8077.0,1.6026,-5.7558,-1.1748,0.2084,-0.203,1.5559
8083.0,1.6026,-5.7558,-1.1748,0.2084,-0.203,1.5559
8088.0,1.6026,-5.7558,-1.1748,0.2084,-0.203,1.5559
8093.0,1.6026,-5.7558,-1.1748,0.2084,-0.203,1.5559
8097.0,1.6026,-5.7558,-1.1748,0.2084,-0.203,1.5559
8102.0,1.6026,-5.7558,-1.1748,0.2084,-0.203,1.5559
8108.0,2.8814,-4.3496,-0.843,0.537,0.2692,2.2657
8113.0,2.8814,-4.3496,-0.843,0.537,0.2692,2.2657
8117.0,2.8814,-4.3496,-0.843,0.537,0.2692,2.2657
8123.0,2.8814,-4.3496,-0.843,0.537,0.2692,2.2657
8127.0,2.8814,-4.3496,-0.843,0.537,0.2692,2.2657
8133.0,3.3555,-4.8167,-0.9331,0.537,0.2692,2.2657
8137.0,3.3555,-4.8167,-0.9331,0.1852,0.9167,2.4276
8142.0,3.3555,-4.8167,-0.9331,0.1852,0.9167,2.4276
8147.0,3.3555,-4.8167,-0.9331,0.1852,0.9167,2.4276
8152.0,3.3555,-4.8167,-0.9331,0.1852,0.9167,2.4276
8157.0,4.0595,-7.3002,-1.1132,0.1852,0.9167,2.4276
8162.0,4.0595,-7.3002,-1.1132,0.1852,0.9167,2.4276
8167.0,4.0595,-7.3002,-1.1132,0.1852,0.9167,2.4276
8172.0,4.0595,-7.3002,-1.1132,-0.2779,1.6418,2.2095
8177.0,4.0595,-7.3002,-1.1132,-0.2779,1.6418,2.2095
8182.0,3.2166,-10.4654,-2.1226,-0.2779,1.6418,2.2095
8187.0,3.2166,-10.4654,-2.1226,-0.2779,1.6418,2.2095
8192.0,3.2166,-10.4654,-2.1226,-0.2779,1.6418,2.2095
8198.0,3.2166,-10.4654,-2.1226,-0.0763,2.3669,1.3249
8203.0,3.2166,-10.4654,-2.1226,-0.0763,2.3669,1.3249
8207.0,3.2166,-10.4654,-2.1226,-0.0763,2.3669,1.3249
8212.0,2.1821,-8.8971,-6.6436,-0.0763,2.3669,1.3249
8218.0,2.1821,-8.8971,-6.6436,-0.0763,2.3669,1.3249
8222.0,2.1821,-8.8971,-6.6436,-0.0763,2.3669,1.3249
8227.0,2.1821,-8.8971,-6.6436,-0.0763,2.3669,1.3249
8232.0,2.1821,-8.8971,-6.6436,-0.0775,0.7756,0.5369
8237.0,3.3124,-7.8389,-7.6957,-0.0775,0.7756,0.5369
8242.0,3.3124,-7.8389,-7.6957,-0.0775,0.7756,0.5369
8247.0,3.3124,-7.8389,-7.6957,-0.0775,0.7756,0.5369
8252.0,3.3124,-7.8389,-7.6957,-0.0775,0.7756,0.5369
8257.0,3.3124,-7.8389,-7.6957,-0.0775,0.7756,0.5369
8263.0,3.3124,-7.8389,-7.6957,0.0605,-0.4351,0.9871
8267.0,3.0586,-7.9247,-4.3594,0.0605,-0.4351,0.9871
8280.0,3.0586,-7.9247,-4.3594,0.0605,-0.4351,0.9871
8281.0,3.0586,-7.9247,-4.3594,0.0605,-0.4351,0.9871
8282.0,3.0586,-7.9247,-4.3594,0.0605,-0.4351,0.9871
8287.0,3.0586,-7.9247,-4.3594,0.0605,-0.4351,0.9871
8292.0,1.5021,-7.9724,-1.061,0.0605,-0.4351,0.9871
8297.0,1.5021,-7.9724,-1.061,0.3306,-0.6642,1.1741
8303.0,1.5021,-7.9724,-1.061,0.3306,-0.6642,1.1741
8307.0,1.5021,-7.9724,-1.061,0.3306,-0.6642,1.1741
8312.0,1.5021,-7.9724,-1.061,0.3306,-0.6642,1.1741
8317.0,1.5021,-7.9724,-1.061,0.3306,-0.6642,1.1741
8322.0,2.5557,-7.5433,0.3844,0.4313,-1.9202,1.3714
8327.0,2.5557,-7.5433,0.3844,0.4313,-1.9202,1.3714
8332.0,2.5557,-7.5433,0.3844,0.4313,-1.9202,1.3714
8337.0,2.5557,-7.5433,0.3844,0.4313,-1.9202,1.3714
8342.0,2.5557,-7.5433,0.3844,0.4313,-1.9202,1.3714
8347.0,3.48,-7.9342,-3.4969,0.4313,-1.9202,1.3714
8352.0,3.48,-7.9342,-3.4969,0.4313,-1.9202,1.3714
8357.0,3.48,-7.9342,-3.4969,0.4124,-0.9562,-0.1088
8364.0,3.48,-7.9342,-3.4969,0.4124,-0.9562,-0.1088
8367.0,3.48,-7.9342,-3.4969,0.4124,-0.9562,-0.1088
8372.0,3.48,-7.9342,-3.4969,0.4124,-0.9562,-0.1088
8377.0,4.2798,-10.8658,-8.2502,0.4124,-0.9562,-0.1088
8382.0,4.2798,-10.8658,-8.2502,0.4124,-0.9562,-0.1088
8387.0,4.2798,-10.8658,-8.2502,-0.025,0.0487,-0.6915
8392.0,4.2798,-10.8658,-8.2502,-0.025,0.0487,-0.6915
8398.0,4.2798,-10.8658,-8.2502,-0.025,0.0487,-0.6915
8402.0,6.7223,-13.2254,-5.4494,-0.025,0.0487,-0.6915
8407.0,6.7223,-13.2254,-5.4494,-0.025,0.0487,-0.6915
8412.0,6.7223,-13.2254,-5.4494,-0.025,0.0487,-0.6915
8417.0,6.7223,-13.2254,-5.4494,-0.6866,-2.6373,0.2779
8422.0,6.7223,-13.2254,-5.4494,-0.6866,-2.6373,0.2779
8427.0,6.7223,-13.2254,-5.4494,-0.6866,-2.6373,0.2779
8432.0,6.7223,-13.2254,-5.4494,-0.6866,-2.6373,0.2779
8437.0,5.7262,-12.3959,3.6685,-0.6866,-2.6373,0.2779
8442.0,5.7262,-12.3959,3.6685,-0.6866,-2.6373,0.2779
8447.0,5.7262,-12.3959,3.6685,-0.6866,-2.6373,0.2779
8452.0,5.7262,-12.3959,3.6685,-0.8881,-3.2531,1.5534
8457.0,5.7262,-12.3959,3.6685,-0.8881,-3.2531,1.5534
8462.0,2.9245,-7.4003,3.0762,-0.8881,-3.2531,1.5534
8467.0,2.9245,-7.4003,3.0762,-0.8881,-3.2531,1.5534
8472.0,2.9245,-7.4003,3.0762,-0.8881,-3.2531,1.5534
8477.0,2.9245,-7.4003,3.0762,-0.8881,-3.2531,1.5534
8483.0,2.9245,-7.4003,3.0762,-0.6548,-0.338,1.0867
8487.0,2.9245,-7.4003,3.0762,-0.6548,-0.338,1.0867
8492.0,-0.4567,-9.1259,1.2137,-0.6548,-0.338,1.0867
8497.0,-0.4567,-9.1259,1.2137,-0.6548,-0.338,1.0867
8502.0,-0.4567,-9.1259,1.2137,-0.6548,-0.338,1.0867
8507.0,-0.4567,-9.1259,1.2137,-0.6548,-0.338,1.0867
8513.0,-0.4567,-9.1259,1.2137,-0.1808,0.9155,-0.1405
8517.0,-0.974,-12.6343,3.1946,-0.1808,0.9155,-0.1405
8522.0,-0.974,-12.6343,3.1946,-0.1808,0.9155,-0.1405
8527.0,-0.974,-12.6343,3.1946,-0.1808,0.9155,-0.1405
8532.0,-0.974,-12.6343,3.1946,-0.1808,0.9155,-0.1405
8537.0,-0.974,-12.6343,3.1946,-0.1808,0.9155,-0.1405
8542.0,-1.5343,-15.4419,0.5408,0.3067,1.3559,-0.4221
8547.0,-1.5343,-15.4419,0.5408,0.3067,1.3559,-0.4221
8552.0,-1.5343,-15.4419,0.5408,0.3067,1.3559,-0.4221
8557.0,-1.5343,-15.4419,0.5408,0.3067,1.3559,-0.4221
8562.0,-1.5343,-15.4419,0.5408,0.3067,1.3559,-0.4221
8567.0,-1.5343,-15.4419,0.5408,0.3067,1.3559,-0.4221
8572.0,-3.7134,-18.3783,-11.1315,0.2401,-2.5433,2.5149
8577.0,-3.7134,-18.3783,-11.1315,0.2401,-2.5433,2.5149
8582.0,-3.7134,-18.3783,-11.1315,0.2401,-2.5433,2.5149
8587.0,-3.7134,-18.3783,-11.1315,0.2401,-2.5433,2.5149
8592.0,-3.7134,-18.3783,-11.1315,0.2401,-2.5433,2.5149
8598.0,1.981,-11.8382,-2.9993,0.2401,-2.5433,2.5149
8602.0,1.981,-11.8382,-2.9993,0.7215,-3.9214,1.0268
8607.0,1.981,-11.8382,-2.9993,0.7215,-3.9214,1.0268
8612.0,1.981,-11.8382,-2.9993,0.7215,-3.9214,1.0268
8617.0,1.981,-11.8382,-2.9993,0.7215,-3.9214,1.0268
8623.0,2.7329,-8.8733,2.081,0.7215,-3.9214,1.0268
8627.0,2.7329,-8.8733,2.081,0.7215,-3.9214,1.0268
8632.0,2.7329,-8.8733,2.081,0.7215,-3.9214,1.0268
8637.0,2.7329,-8.8733,2.081,0.8479,-0.002,-0.2034
8642.0,2.7329,-8.8733,2.081,0.8479,-0.002,-0.2034
8647.0,2.7329,-8.8733,2.081,0.8479,-0.002,-0.2034
8652.0,1.5212,-6.6472,1.9104,0.8479,-0.002,-0.2034
8657.0,1.5212,-6.6472,1.9104,0.8479,-0.002,-0.2034
8662.0,1.5212,-6.6472,1.9104,0.8479,-0.002,-0.2034
8667.0,1.5212,-6.6472,1.9104,0.3391,1.7255,-0.6262
8672.0,1.5212,-6.6472,1.9104,0.3391,1.7255,-0.6262
8677.0,1.4398,-6.2754,1.1995,0.3391,1.7255,-0.6262
8682.0,1.4398,-6.2754,1.1995,0.3391,1.7255,-0.6262
8687.0,1.4398,-6.2754,1.1995,0.3391,1.7255,-0.6262
8692.0,1.4398,-6.2754,1.1995,0.3391,1.7255,-0.6262
8697.0,1.4398,-6.2754,1.1995,0.0129,2.1971,-0.2651
8703.0,2.1247,-8.7398,1.3843,0.0129,2.1971,-0.2651
8707.0,2.1247,-8.7398,1.3843,0.0129,2.1971,-0.2651
8712.0,2.1247,-8.7398,1.3843,0.0129,2.1971,-0.2651
8717.0,2.1247,-8.7398,1.3843,0.0129,2.1971,-0.2651
8722.0,2.1247,-8.7398,1.3843,0.0129,2.1971,-0.2651
8727.0,2.1247,-8.7398,1.3843,-0.2993,2.0633,0.8002
8732.0,2.7712,-9.636,0.7967,-0.2993,2.0633,0.8002
8737.0,2.7712,-9.636,0.7967,-0.2993,2.0633,0.8002
8742.0,2.7712,-9.636,0.7967,-0.2993,2.0633,0.8002
8747.0,2.7712,-9.636,0.7967,-0.2993,2.0633,0.8002
8752.0,2.7712,-9.636,0.7967,-0.2993,2.0633,0.8002
8758.0,2.6036,-8.1106,0.2612,-0.4349,0.9784,1.529
8762.0,2.6036,-8.1106,0.2612,-0.4349,0.9784,1.529
8767.0,2.6036,-8.1106,0.2612,-0.4349,0.9784,1.529
8772.0,2.6036,-8.1106,0.2612,-0.4349,0.9784,1.529
8777.0,2.6036,-8.1106,0.2612,-0.4349,0.9784,1.529
8782.0,2.6036,-8.1106,0.2612,-0.4349,0.9784,1.529
8787.0,2.6132,-9.0068,-6.5062,-0.4349,0.9784,1.529
8792.0,2.6132,-9.0068,-6.5062,-0.1178,-0.2678,2.2913
8797.0,2.6132,-9.0068,-6.5062,-0.1178,-0.2678,2.2913
8802.0,2.6132,-9.0068,-6.5062,-0.1178,-0.2678,2.2913
8808.0,2.6132,-9.0068,-6.5062,-0.1178,-0.2678,2.2913
8812.0,2.6132,-9.0068,-6.5062,-0.1178,-0.2678,2.2913
8817.0,1.7032,-8.4538,-4.6295,-0.1178,-0.2678,2.2913
8822.0,1.7032,-8.4538,-4.6295,0.2145,-2.2146,-0.2334
8827.0,1.7032,-8.4538,-4.6295,0.2145,-2.2146,-0.2334
8832.0,1.7032,-8.4538,-4.6295,0.2145,-2.2146,-0.2334
8837.0,1.7032,-8.4538,-4.6295,0.2145,-2.2146,-0.2334
8842.0,1.7703,-7.0857,1.8488,0.2145,-2.2146,-0.2334
8847.0,1.7703,-7.0857,1.8488,0.2145,-2.2146,-0.2334
8853.0,1.7703,-7.0857,1.8488,0.0654,-1.4828,-1.2712
8857.0,1.7703,-7.0857,1.8488,0.0654,-1.4828,-1.2712
8865.0,1.7703,-7.0857,1.8488,0.0654,-1.4828,-1.2712
8867.0,0.4484,-6.3898,1.844,0.0654,-1.4828,-1.2712
8872.0,0.4484,-6.3898,1.844,0.0654,-1.4828,-1.2712
8878.0,0.4484,-6.3898,1.844,0.0654,-1.4828,-1.2712
8883.0,0.4484,-6.3898,1.844,-0.2504,0.9466,-0.2767
8887.0,0.4484,-6.3898,1.844,-0.2504,0.9466,-0.2767
8892.0,0.4484,-6.3898,1.844,-0.2504,0.9466,-0.2767
8897.0,-1.8025,-9.2546,-3.568,-0.2504,0.9466,-0.2767
8902.0,-1.8025,-9.2546,-3.568,-0.2504,0.9466,-0.2767
8907.0,-1.8025,-9.2546,-3.568,-0.2504,0.9466,-0.2767
8912.0,-1.8025,-9.2546,-3.568,0.2438,0.5593,-1.1992
8917.0,-1.8025,-9.2546,-3.568,0.2438,0.5593,-1.1992
8922.0,-1.5918,-8.5777,-3.1225,0.2438,0.5593,-1.1992
8928.0,-1.5918,-8.5777,-3.1225,0.2438,0.5593,-1.1992
8932.0,-1.5918,-8.5777,-3.1225,0.2438,0.5593,-1.1992
8937.0,-1.5918,-8.5777,-3.1225,0.2438,0.5593,-1.1992
8942.0,-1.5918,-8.5777,-3.1225,0.2438,-0.1077,-2.0501
8947.0,1.4542,-8.163,-0.8952,0.2438,-0.1077,-2.0501
8952.0,1.4542,-8.163,-0.8952,0.2438,-0.1077,-2.0501
8957.0,1.4542,-8.163,-0.8952,0.2438,-0.1077,-2.0501
8962.0,1.4542,-8.163,-0.8952,0.2438,-0.1077,-2.0501
8967.0,1.4542,-8.163,-0.8952,0.2438,-0.1077,-2.0501
8972.0,1.4542,-8.163,-0.8952,-0.1533,1.3926,-1.4496
8977.0,2.321,-8.2536,-0.8336,-0.1533,1.3926,-1.4496
8982.0,2.321,-8.2536,-0.8336,-0.1533,1.3926,-1.4496
8987.0,2.321,-8.2536,-0.8336,-0.1533,1.3926,-1.4496
8993.0,2.321,-8.2536,-0.8336,-0.1533,1.3926,-1.4496
8997.0,2.321,-8.2536,-0.8336,-0.1533,1.3926,-1.4496
9002.0,4.9072,-7.7102,-6.9327,-0.6548,1.5703,-1.9023
9008.0,4.9072,-7.7102,-6.9327,-0.6548,1.5703,-1.9023
9012.0,4.9072,-7.7102,-6.9327,-0.6548,1.5703,-1.9023
9017.0,4.9072,-7.7102,-6.9327,-0.6548,1.5703,-1.9023
9022.0,4.9072,-7.7102,-6.9327,-0.6548,1.5703,-1.9023
9027.0,2.2444,-11.2519,-2.0562,-0.6548,1.5703,-1.9023
9033.0,2.2444,-11.2519,-2.0562,-0.656,-0.0118,-2.4117
9038.0,2.2444,-11.2519,-2.0562,-0.656,-0.0118,-2.4117
9042.0,2.2444,-11.2519,-2.0562,-0.656,-0.0118,-2.4117
9047.0,2.2444,-11.2519,-2.0562,-0.656,-0.0118,-2.4117
9053.0,2.2444,-11.2519,-2.0562,-0.656,-0.0118,-2.4117
9057.0,3.6668,-13.5162,-2.805,-0.656,-0.0118,-2.4117
9064.0,3.6668,-13.5162,-2.805,0.1039,-1.2085,-3.0678
9068.0,3.6668,-13.5162,-2.805,0.1039,-1.2085,-3.0678
9073.0,3.6668,-13.5162,-2.805,0.1039,-1.2085,-3.0678
9078.0,3.6668,-13.5162,-2.805,0.1039,-1.2085,-3.0678
9082.0,5.3718,-14.3551,-1.9615,0.1039,-1.2085,-3.0678
9088.0,5.3718,-14.3551,-1.9615,0.1039,-1.2085,-3.0678
9092.0,5.3718,-14.3551,-1.9615,0.033,-0.4187,-3.3561
9097.0,5.3718,-14.3551,-1.9615,0.033,-0.4187,-3.3561
9102.0,5.3718,-14.3551,-1.9615,0.033,-0.4187,-3.3561
9108.0,4.6869,-11.3187,-0.5445,0.033,-0.4187,-3.3561
9112.0,4.6869,-11.3187,-0.5445,0.033,-0.4187,-3.3561
9117.0,4.6869,-11.3187,-0.5445,0.033,-0.4187,-3.3561
9122.0,4.6869,-11.3187,-0.5445,-0.4728,-0.1132,-1.8143
9127.0,4.6869,-11.3187,-0.5445,-0.4728,-0.1132,-1.8143
9133.0,4.6869,-11.3187,-0.5445,-0.4728,-0.1132,-1.8143
9137.0,2.958,-11.8049,-4.9139,-0.4728,-0.1132,-1.8143
9142.0,2.958,-11.8049,-4.9139,-0.4728,-0.1132,-1.8143
9148.0,2.958,-11.8049,-4.9139,-0.4728,-0.1132,-1.8143
9153.0,2.958,-11.8049,-4.9139,-0.6542,-1.0057,-1.4356
9157.0,2.958,-11.8049,-4.9139,-0.6542,-1.0057,-1.4356
9162.0,2.958,-11.8049,-4.9139,-0.6542,-1.0057,-1.4356
9167.0,1.7032,-14.2407,-4.4874,-0.6542,-1.0057,-1.4356
9173.0,1.7032,-14.2407,-4.4874,-0.6542,-1.0057,-1.4356
9177.0,1.7032,-14.2407,-4.4874,-0.6542,-1.0057,-1.4356
9182.0,1.7032,-14.2407,-4.4874,0.0391,-1.5848,-0.7905
9188.0,1.7032,-14.2407,-4.4874,0.0391,-1.5848,-0.7905
9193.0,1.459,-12.9918,-3.568,0.0391,-1.5848,-0.7905
9197.0,1.459,-12.9918,-3.568,0.0391,-1.5848,-0.7905
9202.0,1.459,-12.9918,-3.568,0.0391,-1.5848,-0.7905
9207.0,1.459,-12.9918,-3.568,0.0391,-1.5848,-0.7905
9212.0,1.459,-12.9918,-3.568,0.0391,-1.5848,-0.7905
9217.0,1.459,-12.9918,-3.568,0.3824,-0.5311,-0.3256
9222.0,3.2693,-8.8733,-3.2505,0.3824,-0.5311,-0.3256
9227.0,3.2693,-8.8733,-3.2505,0.3824,-0.5311,-0.3256
9233.0,3.2693,-8.8733,-3.2505,0.3824,-0.5311,-0.3256
9238.0,3.2693,-8.8733,-3.2505,0.3824,-0.5311,-0.3256
9242.0,3.2693,-8.8733,-3.2505,0.3824,-0.5311,-0.3256
9248.0,2.9867,-6.3707,-2.8571,0.1583,0.8159,-0.0642
9252.0,2.9867,-6.3707,-2.8571,0.1583,0.8159,-0.0642
9257.0,2.9867,-6.3707,-2.8571,0.1583,0.8159,-0.0642
9262.0,2.9867,-6.3707,-2.8571,0.1583,0.8159,-0.0642
9268.0,2.9867,-6.3707,-2.8571,0.1583,0.8159,-0.0642
9272.0,2.9867,-6.3707,-2.8571,0.1583,0.8159,-0.0642
9277.0,1.3009,-4.831,-3.3737,0.1167,0.6833,0.6805
9282.0,1.3009,-4.831,-3.3737,0.1167,0.6833,0.6805
9287.0,1.3009,-4.831,-3.3737,0.1167,0.6833,0.6805
9292.0,1.3009,-4.831,-3.3737,0.1167,0.6833,0.6805
9298.0,1.3009,-4.831,-3.3737,0.1167,0.6833,0.6805
9303.0,0.9274,-4.4259,-2.1937,0.1167,0.6833,0.6805
9307.0,0.9274,-4.4259,-2.1937,-0.0231,-0.2989,1.4392
9312.0,0.9274,-4.4259,-2.1937,-0.0231,-0.2989,1.4392
9317.0,0.9274,-4.4259,-2.1937,-0.0231,-0.2989,1.4392
9323.0,0.9274,-4.4259,-2.1937,-0.0231,-0.2989,1.4392
9327.0,2.3833,-5.4078,-0.5208,-0.0231,-0.2989,1.4392
9332.0,2.3833,-5.4078,-0.5208,-0.0231,-0.2989,1.4392
9337.0,2.3833,-5.4078,-0.5208,-0.0128,-0.6942,2.2321
9342.0,2.3833,-5.4078,-0.5208,-0.0128,-0.6942,2.2321
9347.0,2.3833,-5.4078,-0.5208,-0.0128,-0.6942,2.2321
9352.0,3.1831,-6.1896,-0.3028,-0.0128,-0.6942,2.2321
9357.0,3.1831,-6.1896,-0.3028,-0.0128,-0.6942,2.2321
9362.0,3.1831,-6.1896,-0.3028,-0.0128,-0.6942,2.2321
9367.0,3.1831,-6.1896,-0.3028,-0.0128,-0.6942,2.2321
9372.0,3.1831,-6.1896,-0.3028,-0.006,0.1452,2.8466
9377.0,3.1831,-6.1896,-0.3028,-0.006,0.1452,2.8466
9382.0,3.2693,-5.8797,-1.1037,-0.006,0.1452,2.8466
9387.0,3.2693,-5.8797,-1.1037,-0.006,0.1452,2.8466
9392.0,3.2693,-5.8797,-1.1037,-0.006,0.1452,2.8466
9397.0,3.2693,-5.8797,-1.1037,-0.006,0.1452,2.8466
9402.0,3.2693,-5.8797,-1.1037,-0.1203,1.618,2.5296
9407.0,2.0768,-5.7844,-1.3122,-0.1203,1.618,2.5296
9412.0,2.0768,-5.7844,-1.3122,-0.1203,1.618,2.5296
9417.0,2.0768,-5.7844,-1.3122,-0.1203,1.618,2.5296
9422.0,2.0768,-5.7844,-1.3122,-0.1203,1.618,2.5296
9427.0,2.0768,-5.7844,-1.3122,-0.1203,1.618,2.5296
9432.0,0.4101,-7.0905,-1.3928,0.3556,2.3278,1.9853
9438.0,0.4101,-7.0905,-1.3928,0.3556,2.3278,1.9853
9442.0,0.4101,-7.0905,-1.3928,0.3556,2.3278,1.9853
9447.0,0.4101,-7.0905,-1.3928,0.3556,2.3278,1.9853
9452.0,0.4101,-7.0905,-1.3928,0.3556,2.3278,1.9853
9457.0,0.4101,-7.0905,-1.3928,0.3556,2.3278,1.9853
9464.0,-1.0554,-9.1307,-5.9707,0.953,2.5429,0.6353
9467.0,-1.0554,-9.1307,-5.9707,0.953,2.5429,0.6353
9472.0,-1.0554,-9.1307,-5.9707,0.953,2.5429,0.6353
9477.0,-1.0554,-9.1307,-5.9707,0.953,2.5429,0.6353
9482.0,-1.0554,-9.1307,-5.9707,0.953,2.5429,0.6353
9487.0,1.0806,-13.7974,-10.6624,0.953,2.5429,0.6353
9492.0,1.0806,-13.7974,-10.6624,0.953,2.5429,0.6353
9497.0,1.0806,-13.7974,-10.6624,0.534,2.4042,-0.1833
9504.0,1.0806,-13.7974,-10.6624,0.534,2.4042,-0.1833
9507.0,1.0806,-13.7974,-10.6624,0.534,2.4042,-0.1833
9513.0,1.0806,-13.7974,-10.6624,0.534,2.4042,-0.1833
9517.0,3.9494,-7.5767,-6.8427,0.534,2.4042,-0.1833
9522.0,3.9494,-7.5767,-6.8427,0.534,2.4042,-0.1833
9527.0,3.9494,-7.5767,-6.8427,-0.1502,-2.0271,-0.2596
9533.0,3.9494,-7.5767,-6.8427,-0.1502,-2.0271,-0.2596
9538.0,3.9494,-7.5767,-6.8427,-0.1502,-2.0271,-0.2596
9542.0,8.8775,-2.2617,-6.146,-0.1502,-2.0271,-0.2596
9548.0,8.8775,-2.2617,-6.146,-0.1502,-2.0271,-0.2596
9553.0,8.8775,-2.2617,-6.146,-0.1502,-2.0271,-0.2596
9557.0,8.8775,-2.2617,-6.146,-1.6456,-1.148,-1.2944
9562.0,8.8775,-2.2617,-6.146,-1.6456,-1.148,-1.2944
9567.0,8.3411,-8.7351,-0.8194,-1.6456,-1.148,-1.2944
9572.0,8.3411,-8.7351,-0.8194,-1.6456,-1.148,-1.2944
9577.0,8.3411,-8.7351,-0.8194,-1.6456,-1.148,-1.2944
9583.0,8.3411,-8.7351,-0.8194,-1.6456,-1.148,-1.2944
9587.0,8.3411,-8.7351,-0.8194,-1.5412,-5.1028,0.9969
9593.0,8.3411,-8.7351,-0.8194,-1.5412,-5.1028,0.9969
9598.0,9.8305,-17.382,4.9955,-1.5412,-5.1028,0.9969
9602.0,9.8305,-17.382,4.9955,-1.5412,-5.1028,0.9969
9608.0,9.8305,-17.382,4.9955,-1.5412,-5.1028,0.9969
9613.0,9.8305,-17.382,4.9955,-1.5412,-5.1028,0.9969
9617.0,9.8305,-17.382,4.9955,-1.5412,-5.1028,0.9969
9623.0,5.07,-13.8022,4.768,-0.3206,1.8171,2.3335
9628.0,5.07,-13.8022,4.768,-0.3206,1.8171,2.3335
9632.0,5.07,-13.8022,4.768,-0.3206,1.8171,2.3335
9637.0,5.07,-13.8022,4.768,-0.3206,1.8171,2.3335
9642.0,5.07,-13.8022,4.768,-0.3206,1.8171,2.3335
9647.0,5.07,-13.8022,4.768,-0.3206,1.8171,2.3335
9653.0,-1.041,-8.6779,-3.1557,0.0324,3.009,0.3549
9657.0,-1.041,-8.6779,-3.1557,0.0324,3.009,0.3549
9662.0,-1.041,-8.6779,-3.1557,0.0324,3.009,0.3549
9667.0,-1.041,-8.6779,-3.1557,0.0324,3.009,0.3549
9672.0,-1.041,-8.6779,-3.1557,0.0324,3.009,0.3549
9677.0,-0.8351,-7.1715,1.0621,0.0324,3.009,0.3549
9683.0,-0.8351,-7.1715,1.0621,-0.1258,0.8269,-0.3635
9687.0,-0.8351,-7.1715,1.0621,-0.1258,0.8269,-0.3635
9692.0,-0.8351,-7.1715,1.0621,-0.1258,0.8269,-0.3635
9697.0,-0.8351,-7.1715,1.0621,-0.1258,0.8269,-0.3635
9702.0,-2.0755,-16.0807,-5.1556,-0.1258,0.8269,-0.3635
9707.0,-2.0755,-16.0807,-5.1556,-0.1258,0.8269,-0.3635
9712.0,-2.0755,-16.0807,-5.1556,0.5138,-4.0527,-1.0367
9717.0,-2.0755,-16.0807,-5.1556,0.5138,-4.0527,-1.0367
9722.0,-2.0755,-16.0807,-5.1556,0.5138,-4.0527,-1.0367
9727.0,-2.0755,-16.0807,-5.1556,0.5138,-4.0527,-1.0367
9732.0,-0.2029,-23.0259,-13.0414,0.5138,-4.0527,-1.0367
9737.0,-0.2029,-23.0259,-13.0414,0.5138,-4.0527,-1.0367
9742.0,-0.2029,-23.0259,-13.0414,0.4704,-6.5206,2.3097
9747.0,-0.2029,-23.0259,-13.0414,0.4704,-6.5206,2.3097
9752.0,-0.2029,-23.0259,-13.0414,0.4704,-6.5206,2.3097
9757.0,0.7693,-11.6571,5.313,0.4704,-6.5206,2.3097
9762.0,0.7693,-11.6571,5.313,0.4704,-6.5206,2.3097
9767.0,0.7693,-11.6571,5.313,0.4704,-6.5206,2.3097
9772.0,0.7693,-11.6571,5.313,0.4704,-6.5206,2.3097
9777.0,0.7693,-11.6571,5.313,0.1571,-0.6031,1.2596
9782.0,0.7693,-11.6571,5.313,0.1571,-0.6031,1.2596
9787.0,0.5682,-6.9952,3.133,0.1571,-0.6031,1.2596
9792.0,0.5682,-6.9952,3.133,0.1571,-0.6031,1.2596
9797.0,0.5682,-6.9952,3.133,0.1571,-0.6031,1.2596
9802.0,0.5682,-6.9952,3.133,0.1571,-0.6031,1.2596
9808.0,0.5682,-6.9952,3.133,0.1308,1.6137,0.0769
9813.0,0.8555,-4.2876,1.4649,0.1308,1.6137,0.0769
9817.0,0.8555,-4.2876,1.4649,0.1308,1.6137,0.0769
9822.0,0.8555,-4.2876,1.4649,0.1308,1.6137,0.0769
9827.0,0.8555,-4.2876,1.4649,0.1308,1.6137,0.0769
9832.0,0.8555,-4.2876,1.4649,0.1308,1.6137,0.0769
9837.0,1.8708,-8.6445,2.0241,-0.119,2.3743,0.0672
9842.0,1.8708,-8.6445,2.0241,-0.119,2.3743,0.0672
9847.0,1.8708,-8.6445,2.0241,-0.119,2.3743,0.0672
9853.0,1.8708,-8.6445,2.0241,-0.119,2.3743,0.0672
9857.0,1.8708,-8.6445,2.0241,-0.119,2.3743,0.0672
9865.0,2.5653,-11.7524,2.0478,-0.119,2.3743,0.0672
9868.0,2.5653,-11.7524,2.0478,-0.1148,3.9473,1.3457
9872.0,2.5653,-11.7524,2.0478,-0.1148,3.9473,1.3457
9877.0,2.5653,-11.7524,2.0478,-0.1148,3.9473,1.3457
9882.0,2.5653,-11.7524,2.0478,-0.1148,3.9473,1.3457
9887.0,2.5653,-11.7524,2.0478,-0.1148,3.9473,1.3457
9892.0,4.3085,-8.4204,-11.487,-0.1148,3.9473,1.3457
9898.0,4.3085,-8.4204,-11.487,-0.1148,3.9473,1.3457
9902.0,4.3085,-8.4204,-11.487,-0.3933,1.8208,0.9413
9907.0,4.3085,-8.4204,-11.487,-0.3933,1.8208,0.9413
9912.0,4.3085,-8.4204,-11.487,-0.3933,1.8208,0.9413
9917.0,2.6706,-7.3765,-3.8523,-0.3933,1.8208,0.9413
9924.0,2.6706,-7.3765,-3.8523,-0.3933,1.8208,0.9413
9927.0,2.6706,-7.3765,-3.8523,-0.3933,1.8208,0.9413
9932.0,2.6706,-7.3765,-3.8523,-0.4086,-1.1584,0.0305
9937.0,2.6706,-7.3765,-3.8523,-0.4086,-1.1584,0.0305
9942.0,1.2818,-9.1355,1.4744,-0.4086,-1.1584,0.0305
9947.0,1.2818,-9.1355,1.4744,-0.4086,-1.1584,0.0305
9952.0,1.2818,-9.1355,1.4744,-0.4086,-1.1584,0.0305
9957.0,1.2818,-9.1355,1.4744,-0.4086,-1.1584,0.0305
9962.0,1.2818,-9.1355,1.4744,-0.4086,-1.1584,0.0305
9967.0,-0.2173,-7.9056,-1.3549,0.1619,-1.4357,0.5925
9972.0,-0.2173,-7.9056,-1.3549,0.1619,-1.4357,0.5925
9977.0,-0.2173,-7.9056,-1.3549,0.1619,-1.4357,0.5925
9982.0,-0.2173,-7.9056,-1.3549,0.1619,-1.4357,0.5925
9987.0,-0.2173,-7.9056,-1.3549,0.1619,-1.4357,0.5925
9992.0,-0.2173,-7.9056,-1.3549,0.1619,-1.4357,0.5925
9997.0,-1.1033,-6.1276,-6.1081,0.2413,-1.6343,0.5235
10002.0,-1.1033,-6.1276,-6.1081,0.2413,-1.6343,0.5235
10007.0,-1.1033,-6.1276,-6.1081,0.2413,-1.6343,0.5235
10012.0,-1.1033,-6.1276,-6.1081,0.2413,-1.6343,0.5235
10017.0,-1.1033,-6.1276,-6.1081,0.2413,-1.6343,0.5235
10023.0,0.0318,-6.5995,0.2517,0.2413,-1.6343,0.5235
10027.0,0.0318,-6.5995,0.2517,0.2737,-0.7027,-1.4557
10032.0,0.0318,-6.5995,0.2517,0.2737,-0.7027,-1.4557
10037.0,0.0318,-6.5995,0.2517,0.2737,-0.7027,-1.4557
10042.0,0.0318,-6.5995,0.2517,0.2737,-0.7027,-1.4557
10047.0,-0.0784,-8.7732,-0.3454,0.2737,-0.7027,-1.4557
10053.0,-0.0784,-8.7732,-0.3454,0.2737,-0.7027,-1.4557
10057.0,-0.0784,-8.7732,-0.3454,-0.0341,0.7854,-1.8192
10063.0,-0.0784,-8.7732,-0.3454,-0.0341,0.7854,-1.8192
10068.0,-0.0784,-8.7732,-0.3454,-0.0341,0.7854,-1.8192
10072.0,-0.0784,-8.7732,-0.3454,-0.0341,0.7854,-1.8192
10077.0,-0.5717,-8.0105,-0.4165,-0.0341,0.7854,-1.8192
10082.0,-0.5717,-8.0105,-0.4165,-0.0341,0.7854,-1.8192
10087.0,-0.5717,-8.0105,-0.4165,0.022,1.4127,-1.347
10092.0,-0.5717,-8.0105,-0.4165,0.022,1.4127,-1.347
10097.0,-0.5717,-8.0105,-0.4165,0.022,1.4127,-1.347
10102.0,-0.2077,-7.9914,0.2754,0.022,1.4127,-1.347
10107.0,-0.2077,-7.9914,0.2754,0.022,1.4127,-1.347
10113.0,-0.2077,-7.9914,0.2754,0.022,1.4127,-1.347
10118.0,-0.2077,-7.9914,0.2754,0.2065,1.257,-1.1985
10122.0,-0.2077,-7.9914,0.2754,0.2065,1.257,-1.1985
10127.0,1.7128,-8.7398,-1.1511,0.2065,1.257,-1.1985
10133.0,1.7128,-8.7398,-1.1511,0.2065,1.257,-1.1985
10137.0,1.7128,-8.7398,-1.1511,0.2065,1.257,-1.1985
10145.0,1.7128,-8.7398,-1.1511,0.2065,1.257,-1.1985
10147.0,1.7128,-8.7398,-1.1511,0.2065,1.257,-1.1985
10152.0,1.7128,-8.7398,-1.1511,0.1479,1.4207,-0.8406
10158.0,3.6237,-8.4729,-5.4826,0.1479,1.4207,-0.8406
10163.0,3.6237,-8.4729,-5.4826,0.1479,1.4207,-0.8406
10167.0,3.6237,-8.4729,-5.4826,0.1479,1.4207,-0.8406
10172.0,3.6237,-8.4729,-5.4826,0.1479,1.4207,-0.8406
10178.0,3.6237,-8.4729,-5.4826,0.1479,1.4207,-0.8406
10182.0,2.9005,-10.4988,-4.0087,-0.0164,0.3871,-1.2157
10187.0,2.9005,-10.4988,-4.0087,-0.0164,0.3871,-1.2157
10193.0,2.9005,-10.4988,-4.0087,-0.0164,0.3871,-1.2157
10197.0,2.9005,-10.4988,-4.0087,-0.0164,0.3871,-1.2157
10203.0,2.9005,-10.4988,-4.0087,-0.0164,0.3871,-1.2157
10207.0,3.8201,-14.9414,-4.7243,-0.0164,0.3871,-1.2157
10212.0,3.8201,-14.9414,-4.7243,0.1179,-0.7418,-2.4832
10218.0,3.8201,-14.9414,-4.7243,0.1179,-0.7418,-2.4832
10222.0,3.8201,-14.9414,-4.7243,0.1179,-0.7418,-2.4832
10227.0,3.8201,-14.9414,-4.7243,0.1179,-0.7418,-2.4832
10232.0,3.8201,-14.9414,-4.7243,0.1179,-0.7418,-2.4832
10238.0,1.4207,-15.237,0.3086,0.1179,-0.7418,-2.4832
10242.0,1.4207,-15.237,0.3086,0.6714,0.1513,-2.6335
10248.0,1.4207,-15.237,0.3086,0.6714,0.1513,-2.6335
10253.0,1.4207,-15.237,0.3086,0.6714,0.1513,-2.6335
10257.0,1.4207,-15.237,0.3086,0.6714,0.1513,-2.6335
10262.0,3.0442,-10.5607,-2.2932,0.6714,0.1513,-2.6335
10267.0,3.0442,-10.5607,-2.2932,0.6714,0.1513,-2.6335
10273.0,3.0442,-10.5607,-2.2932,0.6714,0.1513,-2.6335
10278.0,3.0442,-10.5607,-2.2932,0.2096,1.2344,-2.8968
10283.0,3.0442,-10.5607,-2.2932,0.2096,1.2344,-2.8968
10288.0,3.0442,-10.5607,-2.2932,0.2096,1.2344,-2.8968
10293.0,3.1256,-8.859,-2.7671,0.2096,1.2344,-2.8968
10297.0,3.1256,-8.859,-2.7671,0.2096,1.2344,-2.8968
10304.0,3.1256,-8.859,-2.7671,0.2096,1.2344,-2.8968
10307.0,3.1256,-8.859,-2.7671,-0.8454,-0.8261,-1.986
10312.0,3.1256,-8.859,-2.7671,-0.8454,-0.8261,-1.986
10317.0,4.9551,-13.5448,-3.8334,-0.8454,-0.8261,-1.986
10322.0,4.9551,-13.5448,-3.8334,-0.8454,-0.8261,-1.986
10327.0,4.9551,-13.5448,-3.8334,-0.8454,-0.8261,-1.986
10332.0,4.9551,-13.5448,-3.8334,-0.8454,-0.8261,-1.986
10337.0,4.9551,-13.5448,-3.8334,-1.0024,-0.9654,-1.1448
10343.0,4.9551,-13.5448,-3.8334,-1.0024,-0.9654,-1.1448
10347.0,2.3976,-15.7804,-3.9045,-1.0024,-0.9654,-1.1448
10352.0,2.3976,-15.7804,-3.9045,-1.0024,-0.9654,-1.1448
10357.0,2.3976,-15.7804,-3.9045,-1.0024,-0.9654,-1.1448
10362.0,2.3976,-15.7804,-3.9045,-1.0024,-0.9654,-1.1448
10367.0,2.3976,-15.7804,-3.9045,0.0514,-1.2158,-0.6726
10373.0,3.3315,-12.5533,-3.3784,0.0514,-1.2158,-0.6726
10378.0,3.3315,-12.5533,-3.3784,0.0514,-1.2158,-0.6726
10382.0,3.3315,-12.5533,-3.3784,0.0514,-1.2158,-0.6726
10387.0,3.3315,-12.5533,-3.3784,0.0514,-1.2158,-0.6726
10392.0,3.3315,-12.5533,-3.3784,0.0514,-1.2158,-0.6726
10397.0,3.2501,-8.9305,-2.4401,0.3287,-0.1444,-0.4295
10402.0,3.2501,-8.9305,-2.4401,0.3287,-0.1444,-0.4295
10407.0,3.2501,-8.9305,-2.4401,0.3287,-0.1444,-0.4295
10413.0,3.2501,-8.9305,-2.4401,0.3287,-0.1444,-0.4295
10417.0,3.2501,-8.9305,-2.4401,0.3287,-0.1444,-0.4295
10422.0,3.2501,-8.9305,-2.4401,0.3287,-0.1444,-0.4295
10427.0,1.4015,-6.4947,-2.6818,0.3592,1.2533,-0.146
10432.0,1.4015,-6.4947,-2.6818,0.3592,1.2533,-0.146
10437.0,1.4015,-6.4947,-2.6818,0.3592,1.2533,-0.146
10443.0,1.4015,-6.4947,-2.6818,0.3592,1.2533,-0.146
10447.0,1.4015,-6.4947,-2.6818,0.3592,1.2533,-0.146
10452.0,1.4015,-6.4947,-2.6818,0.3592,1.2533,-0.146
10458.0,0.8172,-5.0122,-2.696,0.3592,1.2533,-0.146
10462.0,0.8172,-5.0122,-2.696,0.5266,0.9576,0.5766
10467.0,0.8172,-5.0122,-2.696,0.5266,0.9576,0.5766
10473.0,0.8172,-5.0122,-2.696,0.5266,0.9576,0.5766
10478.0,0.8172,-5.0122,-2.696,0.5266,0.9576,0.5766
10482.0,1.4302,-4.2924,-2.6202,0.5266,0.9576,0.5766
10487.0,1.4302,-4.2924,-2.6202,0.5266,0.9576,0.5766
10492.0,1.4302,-4.2924,-2.6202,0.5358,0.001,1.631
10497.0,1.4302,-4.2924,-2.6202,0.5358,0.001,1.631
10502.0,1.4302,-4.2924,-2.6202,0.5358,0.001,1.631
10508.0,1.4302,-4.2924,-2.6202,0.5358,0.001,1.631
10512.0,3.2022,-4.8644,-1.952,0.5358,0.001,1.631
10517.0,3.2022,-4.8644,-1.952,0.5358,0.001,1.631
10522.0,3.2022,-4.8644,-1.952,0.1845,-0.3038,2.4703
10527.0,3.2022,-4.8644,-1.952,0.1845,-0.3038,2.4703
10532.0,3.2022,-4.8644,-1.952,0.1845,-0.3038,2.4703
10537.0,4.572,-5.9369,-1.3691,0.1845,-0.3038,2.4703
10542.0,4.572,-5.9369,-1.3691,0.1845,-0.3038,2.4703
10548.0,4.572,-5.9369,-1.3691,0.1845,-0.3038,2.4703
10552.0,4.572,-5.9369,-1.3691,0.1845,-0.3038,2.4703
10557.0,4.572,-5.9369,-1.3691,-0.0311,0.3571,2.744
10562.0,4.572,-5.9369,-1.3691,-0.0311,0.3571,2.744
10567.0,4.1409,-6.3898,-1.8335,-0.0311,0.3571,2.744
10573.0,4.1409,-6.3898,-1.8335,-0.0311,0.3571,2.744
10577.0,4.1409,-6.3898,-1.8335,-0.0311,0.3571,2.744
10583.0,4.1409,-6.3898,-1.8335,-0.0311,0.3571,2.744
10587.0,4.1409,-6.3898,-1.8335,-0.0311,0.3571,2.744
10594.0,2.4503,-7.1572,-2.8287,-0.003,0.979,2.3854
10597.0,2.4503,-7.1572,-2.8287,-0.003,0.979,2.3854
10602.0,2.4503,-7.1572,-2.8287,-0.003,0.979,2.3854
10607.0,2.4503,-7.1572,-2.8287,-0.003,0.979,2.3854
10612.0,2.4503,-7.1572,-2.8287,-0.003,0.979,2.3854
10617.0,2.4503,-7.1572,-2.8287,-0.003,0.979,2.3854
10622.0,1.1237,-8.9543,-2.914,0.1888,1.048,1.1539
10627.0,1.1237,-8.9543,-2.914,0.1888,1.048,1.1539
10632.0,1.1237,-8.9543,-2.914,0.1888,1.048,1.1539
10637.0,1.1237,-8.9543,-2.914,0.1888,1.048,1.1539
10642.0,1.1237,-8.9543,-2.914,0.1888,1.048,1.1539
10647.0,0.7023,-10.1842,-4.0135,0.1888,1.048,1.1539
10652.0,0.7023,-10.1842,-4.0135,-0.0561,0.2539,0.5626
10657.0,0.7023,-10.1842,-4.0135,-0.0561,0.2539,0.5626
10662.0,0.7023,-10.1842,-4.0135,-0.0561,0.2539,0.5626
10668.0,0.7023,-10.1842,-4.0135,-0.0561,0.2539,0.5626
10672.0,2.5892,-10.699,-4.0372,-0.0561,0.2539,0.5626
10677.0,2.5892,-10.699,-4.0372,-0.0561,0.2539,0.5626
10682.0,2.5892,-10.699,-4.0372,-0.0561,0.2539,0.5626
10687.0,2.5892,-10.699,-4.0372,-0.0561,0.2539,0.5626
10692.0,2.5892,-10.699,-4.0372,-0.0561,0.2539,0.5626
10697.0,2.5892,-10.699,-4.0372,-0.2272,1.3498,1.2028
10702.0,4.3612,-7.3622,-5.4826,-0.2272,1.3498,1.2028
10707.0,4.3612,-7.3622,-5.4826,-0.2272,1.3498,1.2028
10712.0,4.3612,-7.3622,-5.4826,-0.2272,1.3498,1.2028
10718.0,4.3612,-7.3622,-5.4826,-0.2272,1.3498,1.2028
10724.0,4.3612,-7.3622,-5.4826,-0.2272,1.3498,1.2028
10727.0,3.7003,-5.322,-4.9091,-0.3115,-0.0711,0.317
10732.0,3.7003,-5.322,-4.9091,-0.3115,-0.0711,0.317
10738.0,3.7003,-5.322,-4.9091,-0.3115,-0.0711,0.317
10742.0,3.7003,-5.322,-4.9091,-0.3115,-0.0711,0.317
10749.0,3.7003,-5.322,-4.9091,-0.3115,-0.0711,0.317
10752.0,1.6697,-7.591,-7.127,-0.3115,-0.0711,0.317
10757.0,1.6697,-7.591,-7.127,0.1741,-1.7253,0.2773
10764.0,1.6697,-7.591,-7.127,0.1741,-1.7253,0.2773
10767.0,1.6697,-7.591,-7.127,0.1741,-1.7253,0.2773
10772.0,1.6697,-7.591,-7.127,0.1741,-1.7253,0.2773
10777.0,1.6697,-7.591,-7.127,0.1741,-1.7253,0.2773
10782.0,3.3938,-14.2026,-6.8569,0.1741,-1.7253,0.2773
10788.0,3.3938,-14.2026,-6.8569,0.1008,-4.5573,0.7813
10792.0,3.3938,-14.2026,-6.8569,0.1008,-4.5573,0.7813
10797.0,3.3938,-14.2026,-6.8569,0.1008,-4.5573,0.7813
10803.0,3.3938,-14.2026,-6.8569,0.1008,-4.5573,0.7813
10807.0,7.4695,-16.5479,1.3275,0.1008,-4.5573,0.7813
10812.0,7.4695,-16.5479,1.3275,0.1008,-4.5573,0.7813
10818.0,7.4695,-16.5479,1.3275,-0.6554,-3.6263,0.7453
10822.0,7.4695,-16.5479,1.3275,-0.6554,-3.6263,0.7453
10827.0,7.4695,-16.5479,1.3275,-0.6554,-3.6263,0.7453
10832.0,7.4695,-16.5479,1.3275,-0.6554,-3.6263,0.7453
10837.0,5.1323,-10.2604,5.4694,-0.6554,-3.6263,0.7453
10842.0,5.1323,-10.2604,5.4694,-0.6554,-3.6263,0.7453
10847.0,5.1323,-10.2604,5.4694,-0.6866,-1.437,0.9132
10852.0,5.1323,-10.2604,5.4694,-0.6866,-1.437,0.9132
10857.0,5.1323,-10.2604,5.4694,-0.6866,-1.437,0.9132
10862.0,2.3258,-4.6737,3.2326,-0.6866,-1.437,0.9132
10867.0,2.3258,-4.6737,3.2326,-0.6866,-1.437,0.9132
10872.0,2.3258,-4.6737,3.2326,-0.6866,-1.437,0.9132
10877.0,2.3258,-4.6737,3.2326,-0.6866,-1.437,0.9132
10883.0,2.3258,-4.6737,3.2326,-0.6768,0.2765,0.5357
10887.0,0.6831,-5.2029,3.6164,-0.6768,0.2765,0.5357
10892.0,0.6831,-5.2029,3.6164,-0.6768,0.2765,0.5357
10897.0,0.6831,-5.2029,3.6164,-0.6768,0.2765,0.5357
10902.0,0.6831,-5.2029,3.6164,-0.6768,0.2765,0.5357
10907.0,0.6831,-5.2029,3.6164,-0.6768,0.2765,0.5357
10912.0,0.6831,-5.2029,3.6164,-0.5143,2.246,-0.5724
10917.0,1.2866,-12.682,3.4932,-0.5143,2.246,-0.5724
10922.0,1.2866,-12.682,3.4932,-0.5143,2.246,-0.5724
10927.0,1.2866,-12.682,3.4932,-0.5143,2.246,-0.5724
10932.0,1.2866,-12.682,3.4932,-0.5143,2.246,-0.5724
10937.0,1.2866,-12.682,3.4932,-0.5143,2.246,-0.5724
10942.0,2.4408,-19.5366,1.299,-0.3524,2.7059,-0.6952
10947.0,2.4408,-19.5366,1.299,-0.3524,2.7059,-0.6952
10952.0,2.4408,-19.5366,1.299,-0.3524,2.7059,-0.6952
10958.0,2.4408,-19.5366,1.299,-0.3524,2.7059,-0.6952
10962.0,2.4408,-19.5366,1.299,-0.3524,2.7059,-0.6952
10967.0,2.1055,-15.9091,-14.6763,-0.3524,2.7059,-0.6952
10973.0,2.1055,-15.9091,-14.6763,-0.1765,-0.63,3.8735
10977.0,2.1055,-15.9091,-14.6763,-0.1765,-0.63,3.8735
10982.0,2.1055,-15.9091,-14.6763,-0.1765,-0.63,3.8735
10987.0,2.1055,-15.9091,-14.6763,-0.1765,-0.63,3.8735
10992.0,2.1055,-15.9091,-14.6763,-0.1765,-0.63,3.8735
10997.0,2.4025,-12.2816,-0.4923,-0.1765,-0.63,3.8735
11002.0,2.4025,-12.2816,-0.4923,0.2603,-4.6862,1.6866
11007.0,2.4025,-12.2816,-0.4923,0.2603,-4.6862,1.6866
11012.0,2.4025,-12.2816,-0.4923,0.2603,-4.6862,1.6866
11017.0,2.4025,-12.2816,-0.4923,0.2603,-4.6862,1.6866
11022.0,1.6793,-7.5529,2.9624,0.2603,-4.6862,1.6866
11027.0,1.6793,-7.5529,2.9624,0.2603,-4.6862,1.6866
11038.0,1.6793,-7.5529,2.9624,0.5455,-2.3044,0.0195
11039.0,1.6793,-7.5529,2.9624,0.5455,-2.3044,0.0195
11042.0,1.6793,-7.5529,2.9624,0.5455,-2.3044,0.0195
11047.0,1.6793,-7.5529,2.9624,0.5455,-2.3044,0.0195
11053.0,1.0902,-5.0074,2.8913,0.5455,-2.3044,0.0195
11058.0,1.0902,-5.0074,2.8913,0.5455,-2.3044,0.0195
11062.0,1.0902,-5.0074,2.8913,0.0574,0.3736,0.1594
11067.0,1.0902,-5.0074,2.8913,0.0574,0.3736,0.1594
11072.0,1.0902,-5.0074,2.8913,0.0574,0.3736,0.1594
11077.0,2.1247,-9.0211,2.0904,0.0574,0.3736,0.1594
11082.0,2.1247,-9.0211,2.0904,0.0574,0.3736,0.1594
11088.0,2.1247,-9.0211,2.0904,0.0574,0.3736,0.1594
11092.0,2.1247,-9.0211,2.0904,-0.1148,1.9387,-0.2266
