time in milliseconds,acceleration_x,acceleration_y,acceleration_z,Roll,Pitch,Yaw
5.0,-6.1799,-3.8205,9.9194,-0.692,1.7243,-0.9683
10.0,-6.1799,-3.8205,9.9194,-0.692,1.7243,-0.9683
15.0,-5.8973,-2.2045,9.3886,-0.692,1.7243,-0.9683
20.0,-5.8973,-2.2045,9.3886,-0.692,1.7243,-0.9683
25.0,-5.8973,-2.2045,9.3886,-0.692,1.7243,-0.9683
30.0,-5.8973,-2.2045,9.3886,-0.692,1.7243,-0.9683
35.0,-5.8973,-2.2045,9.3886,-0.3163,1.946,-0.3611
40.0,-4.8341,-0.5028,5.9528,-0.3163,1.946,-0.3611
45.0,-4.8341,-0.5028,5.9528,-0.3163,1.946,-0.3611
50.0,-4.8341,-0.5028,5.9528,-0.3163,1.946,-0.3611
55.0,-4.8341,-0.5028,5.9528,-0.3163,1.946,-0.3611
60.0,-4.8341,-0.5028,5.9528,-0.3163,1.946,-0.3611
65.0,-4.8341,-0.5028,5.9528,-0.2974,1.7921,-0.6078
70.0,-5.8877,-0.6458,6.3271,-0.2974,1.7921,-0.6078
75.0,-5.8877,-0.6458,6.3271,-0.2974,1.7921,-0.6078
80.0,-5.8877,-0.6458,6.3271,-0.2974,1.7921,-0.6078
85.0,-5.8877,-0.6458,6.3271,-0.2974,1.7921,-0.6078
90.0,-5.8877,-0.6458,6.3271,-0.2974,1.7921,-0.6078
95.0,-3.3829,-1.5181,5.4789,-0.2974,1.7921,-0.6078
100.0,-3.3829,-1.5181,5.4789,-0.488,1.5435,-0.49
105.0,-3.3829,-1.5181,5.4789,-0.488,1.5435,-0.49
111.0,-3.3829,-1.5181,5.4789,-0.488,1.5435,-0.49
115.0,-3.3829,-1.5181,5.4789,-0.488,1.5435,-0.49
121.0,-0.7584,-2.0043,4.4742,-0.488,1.5435,-0.49
125.0,-0.7584,-2.0043,4.4742,-0.488,1.5435,-0.49
130.0,-0.7584,-2.0043,4.4742,-0.8856,3.3743,-0.675
135.0,-0.7584,-2.0043,4.4742,-0.8856,3.3743,-0.675
140.0,-0.7584,-2.0043,4.4742,-0.8856,3.3743,-0.675
145.0,-0.7584,-2.0043,4.4742,-0.8856,3.3743,-0.675
150.0,0.9274,-3.6441,2.4364,-0.8856,3.3743,-0.675
155.0,0.9274,-3.6441,2.4364,-0.8856,3.3743,-0.675
160.0,0.9274,-3.6441,2.4364,-0.8856,3.3743,-0.675
165.0,0.9274,-3.6441,2.4364,-2.122,4.0951,-0.8113
170.0,0.9274,-3.6441,2.4364,-2.122,4.0951,-0.8113
175.0,0.8507,-4.3687,-2.2316,-2.122,4.0951,-0.8113
180.0,0.8507,-4.3687,-2.2316,-2.122,4.0951,-0.8113
185.0,0.8507,-4.3687,-2.2316,-2.122,4.0951,-0.8113
190.0,0.8507,-4.3687,-2.2316,-2.122,4.0951,-0.8113
195.0,0.8507,-4.3687,-2.2316,-3.8722,3.4286,-3.0776
201.0,0.8507,-4.3687,-2.2316,-3.8722,3.4286,-3.0776
205.0,-0.0161,-7.5767,-0.3265,-3.8722,3.4286,-3.0776
210.0,-0.0161,-7.5767,-0.3265,-3.8722,3.4286,-3.0776
215.0,-0.0161,-7.5767,-0.3265,-3.8722,3.4286,-3.0776
220.0,-0.0161,-7.5767,-0.3265,-3.8722,3.4286,-3.0776
225.0,-0.0161,-7.5767,-0.3265,-3.8722,3.4286,-3.0776
230.0,-0.1598,-11.9812,1.5075,-5.2008,3.6369,-3.3116
235.0,-0.1598,-11.9812,1.5075,-5.2008,3.6369,-3.3116
240.0,-0.1598,-11.9812,1.5075,-5.2008,3.6369,-3.3116
245.0,-0.1598,-11.9812,1.5075,-5.2008,3.6369,-3.3116
250.0,-0.1598,-11.9812,1.5075,-5.2008,3.6369,-3.3116
255.0,-1.7929,-13.6496,3.5027,-5.2008,3.6369,-3.3116
260.0,-1.7929,-13.6496,3.5027,-5.7024,4.6748,-2.143
265.0,-1.7929,-13.6496,3.5027,-5.7024,4.6748,-2.143
270.0,-1.7929,-13.6496,3.5027,-5.7024,4.6748,-2.143
275.0,-1.7929,-13.6496,3.5027,-5.7024,4.6748,-2.143
280.0,-1.7929,-13.6496,3.5027,-5.7024,4.6748,-2.143
285.0,-4.9634,-16.1999,4.2372,-5.7024,4.6748,-2.143
290.0,-4.9634,-16.1999,4.2372,-6.4,5.53,-1.6207
295.0,-4.9634,-16.1999,4.2372,-6.4,5.53,-1.6207
300.0,-4.9634,-16.1999,4.2372,-6.4,5.53,-1.6207
306.0,-4.9634,-16.1999,4.2372,-6.4,5.53,-1.6207
310.0,-10.7919,-19.9466,6.3651,-6.4,5.53,-1.6207
315.0,-10.7919,-19.9466,6.3651,-6.4,5.53,-1.6207
320.0,-10.7919,-19.9466,6.3651,-6.6773,5.3419,0.0336
325.0,-10.7919,-19.9466,6.3651,-6.6773,5.3419,0.0336
330.0,-10.7919,-19.9466,6.3651,-6.6773,5.3419,0.0336
335.0,-22.219,-20.776,8.6066,-6.6773,5.3419,0.0336
340.0,-22.219,-20.776,8.6066,-6.6773,5.3419,0.0336
345.0,-22.219,-20.776,8.6066,-6.6773,5.3419,0.0336
350.0,-22.219,-20.776,8.6066,-3.9278,3.8068,2.923
355.0,-22.219,-20.776,8.6066,-3.9278,3.8068,2.923
360.0,-22.219,-20.776,8.6066,-3.9278,3.8068,2.923
366.0,-25.5666,-15.399,2.9909,-3.9278,3.8068,2.923
370.0,-25.5666,-15.399,2.9909,-3.9278,3.8068,2.923
375.0,-25.5666,-15.399,2.9909,-3.9278,3.8068,2.923
380.0,-25.5666,-15.399,2.9909,-1.9302,-1.528,3.9101
386.0,-25.5666,-15.399,2.9909,-1.9302,-1.528,3.9101
390.0,-25.9498,-9.4358,-1.4828,-1.9302,-1.528,3.9101
395.0,-25.9498,-9.4358,-1.4828,-1.9302,-1.528,3.9101
400.0,-25.9498,-9.4358,-1.4828,-1.9302,-1.528,3.9101
405.0,-25.9498,-9.4358,-1.4828,-1.9302,-1.528,3.9101
410.0,-25.9498,-9.4358,-1.4828,-1.9302,-1.528,3.9101
415.0,-20.3368,-7.8055,-0.7103,0.0294,-5.5603,1.9059
420.0,-20.3368,-7.8055,-0.7103,0.0294,-5.5603,1.9059
425.0,-20.3368,-7.8055,-0.7103,0.0294,-5.5603,1.9059
430.0,-20.3368,-7.8055,-0.7103,0.0294,-5.5603,1.9059
435.0,-20.3368,-7.8055,-0.7103,0.0294,-5.5603,1.9059
441.0,-20.3368,-7.8055,-0.7103,0.0294,-5.5603,1.9059
445.0,-8.857,-4.8358,-6.5868,1.0197,-5.0405,0.6481
450.0,-8.857,-4.8358,-6.5868,1.0197,-5.0405,0.6481
455.0,-8.857,-4.8358,-6.5868,1.0197,-5.0405,0.6481
460.0,-8.857,-4.8358,-6.5868,1.0197,-5.0405,0.6481
465.0,-8.857,-4.8358,-6.5868,1.0197,-5.0405,0.6481
470.0,-8.9384,-1.9185,2.4554,1.0197,-5.0405,0.6481
475.0,-8.9384,-1.9185,2.4554,-0.5203,-1.1468,-4.5919
480.0,-8.9384,-1.9185,2.4554,-0.5203,-1.1468,-4.5919
485.0,-8.9384,-1.9185,2.4554,-0.5203,-1.1468,-4.5919
490.0,-8.9384,-1.9185,2.4554,-0.5203,-1.1468,-4.5919
495.0,-4.8436,-10.0173,0.6261,-0.5203,-1.1468,-4.5919
500.0,-4.8436,-10.0173,0.6261,-0.5203,-1.1468,-4.5919
505.0,-4.8436,-10.0173,0.6261,1.6495,0.2454,-3.1515
510.0,-4.8436,-10.0173,0.6261,1.6495,0.2454,-3.1515
515.0,-4.8436,-10.0173,0.6261,1.6495,0.2454,-3.1515
520.0,-4.8436,-10.0173,0.6261,1.6495,0.2454,-3.1515
525.0,-4.2019,-8.0629,1.7634,1.6495,0.2454,-3.1515
530.0,-4.2019,-8.0629,1.7634,1.6495,0.2454,-3.1515
536.0,-4.2019,-8.0629,1.7634,3.2243,2.7041,-0.281
540.0,-4.2019,-8.0629,1.7634,3.2243,2.7041,-0.281
545.0,-4.2019,-8.0629,1.7634,3.2243,2.7041,-0.281
550.0,-4.2019,-8.0629,1.7634,3.2243,2.7041,-0.281
555.0,-3.541,-5.5413,-1.1274,3.2243,2.7041,-0.281
560.0,-3.541,-5.5413,-1.1274,3.2243,2.7041,-0.281
565.0,-3.541,-5.5413,-1.1274,2.9879,2.6009,1.6322
571.0,-3.541,-5.5413,-1.1274,2.9879,2.6009,1.6322
575.0,-3.541,-5.5413,-1.1274,2.9879,2.6009,1.6322
580.0,-4.6521,-7.1954,2.2089,2.9879,2.6009,1.6322
585.0,-4.6521,-7.1954,2.2089,2.9879,2.6009,1.6322
590.0,-4.6521,-7.1954,2.2089,2.9879,2.6009,1.6322
595.0,-4.6521,-7.1954,2.2089,2.9879,2.6009,1.6322
600.0,-4.6521,-7.1954,2.2089,1.9146,2.841,3.2742
605.0,-4.6521,-7.1954,2.2089,1.9146,2.841,3.2742
610.0,-8.0381,-6.1133,1.5692,1.9146,2.841,3.2742
615.0,-8.0381,-6.1133,1.5692,1.9146,2.841,3.2742
620.0,-8.0381,-6.1133,1.5692,1.9146,2.841,3.2742
625.0,-8.0381,-6.1133,1.5692,1.9146,2.841,3.2742
630.0,-8.0381,-6.1133,1.5692,1.3795,2.2435,2.0891
637.0,-10.6386,-6.2992,6.1945,1.3795,2.2435,2.0891
640.0,-10.6386,-6.2992,6.1945,1.3795,2.2435,2.0891
645.0,-10.6386,-6.2992,6.1945,1.3795,2.2435,2.0891
650.0,-10.6386,-6.2992,6.1945,1.3795,2.2435,2.0891
655.0,-10.6386,-6.2992,6.1945,1.3795,2.2435,2.0891
660.0,-10.6386,-6.2992,6.1945,1.7771,2.1275,0.1655
665.0,-3.3063,-5.4317,1.8819,1.7771,2.1275,0.1655
670.0,-3.3063,-5.4317,1.8819,1.7771,2.1275,0.1655
675.0,-3.3063,-5.4317,1.8819,1.7771,2.1275,0.1655
680.0,-3.3063,-5.4317,1.8819,1.7771,2.1275,0.1655
685.0,-3.3063,-5.4317,1.8819,1.7771,2.1275,0.1655
690.0,-1.2086,-9.4119,3.8534,1.7771,2.1275,0.1655
695.0,-1.2086,-9.4119,3.8534,-0.3847,2.6919,0.5668
701.0,-1.2086,-9.4119,3.8534,-0.3847,2.6919,0.5668
705.0,-1.2086,-9.4119,3.8534,-0.3847,2.6919,0.5668
710.0,-1.2086,-9.4119,3.8534,-0.3847,2.6919,0.5668
717.0,-7.4586,-8.8065,-1.2079,-0.3847,2.6919,0.5668
723.0,-7.4586,-8.8065,-1.2079,1.4149,3.3223,3.2981
726.0,-7.4586,-8.8065,-1.2079,1.4149,3.3223,3.2981
732.0,-7.4586,-8.8065,-1.2079,1.4149,3.3223,3.2981
736.0,-7.4586,-8.8065,-1.2079,1.4149,3.3223,3.2981
740.0,-7.4586,-8.8065,-1.2079,1.4149,3.3223,3.2981
746.0,-8.9959,-7.0714,-0.4402,1.4149,3.3223,3.2981
750.0,-8.9959,-7.0714,-0.4402,1.4149,3.3223,3.2981
755.0,-8.9959,-7.0714,-0.4402,1.7405,2.7353,2.2296
760.0,-8.9959,-7.0714,-0.4402,1.7405,2.7353,2.2296
765.0,-8.9959,-7.0714,-0.4402,1.7405,2.7353,2.2296
770.0,-7.5256,-9.8981,1.8535,1.7405,2.7353,2.2296
775.0,-7.5256,-9.8981,1.8535,1.7405,2.7353,2.2296
780.0,-7.5256,-9.8981,1.8535,1.7405,2.7353,2.2296
785.0,-7.5256,-9.8981,1.8535,1.6873,1.0169,1.7959
791.0,-7.5256,-9.8981,1.8535,1.6873,1.0169,1.7959
795.0,-7.5256,-9.8981,1.8535,1.6873,1.0169,1.7959
800.0,-6.5726,-9.7838,0.1474,1.6873,1.0169,1.7959
805.0,-6.5726,-9.7838,0.1474,1.6873,1.0169,1.7959
810.0,-6.5726,-9.7838,0.1474,1.6873,1.0169,1.7959
815.0,-6.5726,-9.7838,0.1474,1.3734,0.9503,1.6389
820.0,-6.5726,-9.7838,0.1474,1.3734,0.9503,1.6389
825.0,-6.9749,-4.259,1.7824,1.3734,0.9503,1.6389
830.0,-6.9749,-4.259,1.7824,1.3734,0.9503,1.6389
836.0,-6.9749,-4.259,1.7824,1.3734,0.9503,1.6389
840.0,-6.9749,-4.259,1.7824,1.3734,0.9503,1.6389
845.0,-6.9749,-4.259,1.7824,-0.0793,1.3315,1.3646
851.0,-8.8905,-11.1137,2.2468,-0.0793,1.3315,1.3646
855.0,-8.8905,-11.1137,2.2468,-0.0793,1.3315,1.3646
860.0,-8.8905,-11.1137,2.2468,-0.0793,1.3315,1.3646
865.0,-8.8905,-11.1137,2.2468,-0.0793,1.3315,1.3646
870.0,-8.8905,-11.1137,2.2468,-0.0793,1.3315,1.3646
875.0,-8.8905,-11.1137,2.2468,-0.9052,0.1079,-0.3916
880.0,-6.4959,-7.3384,1.0621,-0.9052,0.1079,-0.3916
885.0,-6.4959,-7.3384,1.0621,-0.9052,0.1079,-0.3916
890.0,-6.4959,-7.3384,1.0621,-0.9052,0.1079,-0.3916
895.0,-6.4959,-7.3384,1.0621,-0.9052,0.1079,-0.3916
900.0,-6.4959,-7.3384,1.0621,-0.9052,0.1079,-0.3916
905.0,-8.3206,-8.7923,-0.9378,-1.3591,-0.0191,-2.0819
910.0,-8.3206,-8.7923,-0.9378,-1.3591,-0.0191,-2.0819
915.0,-8.3206,-8.7923,-0.9378,-1.3591,-0.0191,-2.0819
920.0,-8.3206,-8.7923,-0.9378,-1.3591,-0.0191,-2.0819
925.0,-8.3206,-8.7923,-0.9378,-1.3591,-0.0191,-2.0819
931.0,-11.6443,-10.1842,-0.6108,-1.3591,-0.0191,-2.0819
936.0,-11.6443,-10.1842,-0.6108,-2.2448,-0.101,-1.1607
940.0,-11.6443,-10.1842,-0.6108,-2.2448,-0.101,-1.1607
945.0,-11.6443,-10.1842,-0.6108,-2.2448,-0.101,-1.1607
950.0,-11.6443,-10.1842,-0.6108,-2.2448,-0.101,-1.1607
955.0,-11.6443,-10.1842,-0.6108,-2.2448,-0.101,-1.1607
960.0,-7.607,-6.2944,-2.5633,-2.2448,-0.101,-1.1607
965.0,-7.607,-6.2944,-2.5633,-2.2448,-0.101,-1.1607
970.0,-7.607,-6.2944,-2.5633,-2.2448,-0.101,-1.1607
975.0,-7.607,-6.2944,-2.5633,-3.9846,-0.5726,-1.427
980.0,-7.607,-6.2944,-2.5633,-3.9846,-0.5726,-1.427
985.0,-4.8867,-6.5423,-0.1701,-3.9846,-0.5726,-1.427
990.0,-4.8867,-6.5423,-0.1701,-3.9846,-0.5726,-1.427
995.0,-4.8867,-6.5423,-0.1701,-3.9846,-0.5726,-1.427
1000.0,-4.8867,-6.5423,-0.1701,-3.9846,-0.5726,-1.427
1005.0,-4.8867,-6.5423,-0.1701,-4.8282,0.0591,-0.4215
1010.0,-7.3819,-8.3013,10.943,-4.8282,0.0591,-0.4215
1015.0,-7.3819,-8.3013,10.943,-4.8282,0.0591,-0.4215
1021.0,-7.3819,-8.3013,10.943,-4.8282,0.0591,-0.4215
1025.0,-7.3819,-8.3013,10.943,-4.8282,0.0591,-0.4215
1030.0,-7.3819,-8.3013,10.943,-4.8282,0.0591,-0.4215
1035.0,-7.3819,-8.3013,10.943,-3.5869,-1.5958,3.1521
1040.0,2.0289,-5.0312,-1.5491,-3.5869,-1.5958,3.1521
1045.0,2.0289,-5.0312,-1.5491,-3.5869,-1.5958,3.1521
1050.0,2.0289,-5.0312,-1.5491,-3.5869,-1.5958,3.1521
1055.0,2.0289,-5.0312,-1.5491,-3.5869,-1.5958,3.1521
1060.0,2.0289,-5.0312,-1.5491,-3.5869,-1.5958,3.1521
1065.0,1.5739,-5.4841,3.5595,-3.5869,-1.5958,3.1521
1071.0,1.5739,-5.4841,3.5595,-3.1807,-0.1156,3.5338
1075.0,1.5739,-5.4841,3.5595,-3.1807,-0.1156,3.5338
1080.0,1.5739,-5.4841,3.5595,-3.1807,-0.1156,3.5338
1085.0,1.5739,-5.4841,3.5595,-3.1807,-0.1156,3.5338
1090.0,2.9676,-7.9438,7.7157,-3.1807,-0.1156,3.5338
1095.0,2.9676,-7.9438,7.7157,-3.1807,-0.1156,3.5338
1100.0,2.9676,-7.9438,7.7157,-2.5002,1.7561,1.0928
1105.0,2.9676,-7.9438,7.7157,-2.5002,1.7561,1.0928
1110.0,2.9676,-7.9438,7.7157,-2.5002,1.7561,1.0928
1115.0,2.9676,-7.9438,7.7157,-2.5002,1.7561,1.0928
1120.0,-0.8063,-9.9029,8.4408,-2.5002,1.7561,1.0928
1125.0,-0.8063,-9.9029,8.4408,-2.5002,1.7561,1.0928
1130.0,-0.8063,-9.9029,8.4408,-1.0561,1.0133,-1.3232
1135.0,-0.8063,-9.9029,8.4408,-1.0561,1.0133,-1.3232
1140.0,-0.8063,-9.9029,8.4408,-1.0561,1.0133,-1.3232
1145.0,-0.6722,-8.3394,-0.5966,-1.0561,1.0133,-1.3232
1150.0,-0.6722,-8.3394,-0.5966,-1.0561,1.0133,-1.3232
1155.0,-0.6722,-8.3394,-0.5966,-1.0561,1.0133,-1.3232
1160.0,-0.6722,-8.3394,-0.5966,-1.0561,1.0133,-1.3232
1165.0,-0.6722,-8.3394,-0.5966,-0.6224,-0.1065,-2.1705
1170.0,-2.0228,-8.0915,-2.6154,-0.6224,-0.1065,-2.1705
1175.0,-2.0228,-8.0915,-2.6154,-0.6224,-0.1065,-2.1705
1180.0,-2.0228,-8.0915,-2.6154,-0.6224,-0.1065,-2.1705
1185.0,-2.0228,-8.0915,-2.6154,-0.6224,-0.1065,-2.1705
1190.0,-2.0228,-8.0915,-2.6154,-0.6224,-0.1065,-2.1705
1195.0,-2.0228,-8.0915,-2.6154,0.0563,-0.5518,-2.884
1200.0,-0.3274,-9.3023,-5.1319,0.0563,-0.5518,-2.884
1205.0,-0.3274,-9.3023,-5.1319,0.0563,-0.5518,-2.884
1211.0,-0.3274,-9.3023,-5.1319,0.0563,-0.5518,-2.884
1215.0,-0.3274,-9.3023,-5.1319,0.0563,-0.5518,-2.884
1220.0,-0.3274,-9.3023,-5.1319,0.0563,-0.5518,-2.884
1226.0,0.5346,-6.366,-4.1651,0.8865,-1.5561,-2.5614
1230.0,0.5346,-6.366,-4.1651,0.8865,-1.5561,-2.5614
1235.0,0.5346,-6.366,-4.1651,0.8865,-1.5561,-2.5614
1240.0,0.5346,-6.366,-4.1651,0.8865,-1.5561,-2.5614
1245.0,0.5346,-6.366,-4.1651,0.8865,-1.5561,-2.5614
1250.0,0.5346,-6.366,-4.1651,0.8865,-1.5561,-2.5614
1255.0,1.0758,-9.3261,-5.8238,2.005,-2.5493,-1.617
1260.0,1.0758,-9.3261,-5.8238,2.005,-2.5493,-1.617
1266.0,1.0758,-9.3261,-5.8238,2.005,-2.5493,-1.617
1270.0,1.0758,-9.3261,-5.8238,2.005,-2.5493,-1.617
1275.0,1.0758,-9.3261,-5.8238,2.005,-2.5493,-1.617
1280.0,1.9139,-9.3071,-0.843,2.005,-2.5493,-1.617
1285.0,1.9139,-9.3071,-0.843,2.7386,-2.4314,-0.4893
1290.0,1.9139,-9.3071,-0.843,2.7386,-2.4314,-0.4893
1295.0,1.9139,-9.3071,-0.843,2.7386,-2.4314,-0.4893
1301.0,1.9139,-9.3071,-0.843,2.7386,-2.4314,-0.4893
1305.0,-0.3178,-14.8604,-0.3217,2.7386,-2.4314,-0.4893
1310.0,-0.3178,-14.8604,-0.3217,2.7386,-2.4314,-0.4893
1315.0,-0.3178,-14.8604,-0.3217,2.2695,-2.6281,1.609
1320.0,-0.3178,-14.8604,-0.3217,2.2695,-2.6281,1.609
1326.0,-0.3178,-14.8604,-0.3217,2.2695,-2.6281,1.609
1330.0,-0.3178,-14.8604,-0.3217,2.2695,-2.6281,1.609
1335.0,-2.2144,-6.6758,8.1138,2.2695,-2.6281,1.609
1340.0,-2.2144,-6.6758,8.1138,2.2695,-2.6281,1.609
1346.0,-2.2144,-6.6758,8.1138,0.1021,0.5575,1.1478
1350.0,-2.2144,-6.6758,8.1138,0.1021,0.5575,1.1478
1355.0,-2.2144,-6.6758,8.1138,0.1021,0.5575,1.1478
1360.0,-4.1205,-10.2604,-0.8478,0.1021,0.5575,1.1478
1365.0,-4.1205,-10.2604,-0.8478,0.1021,0.5575,1.1478
1370.0,-4.1205,-10.2604,-0.8478,0.1021,0.5575,1.1478
1375.0,-4.1205,-10.2604,-0.8478,0.1021,0.5575,1.1478
1380.0,-4.1205,-10.2604,-0.8478,0.4962,-0.6605,-0.5492
1385.0,-4.1205,-10.2604,-0.8478,0.4962,-0.6605,-0.5492
1390.0,-4.1205,-10.2604,-0.8478,0.4962,-0.6605,-0.5492
1396.0,-6.5726,-10.3272,0.3891,0.4962,-0.6605,-0.5492
1400.0,-6.5726,-10.3272,0.3891,0.4962,-0.6605,-0.5492
1405.0,-6.5726,-10.3272,0.3891,0.4962,-0.6605,-0.5492
1410.0,-6.5726,-10.3272,0.3891,1.7808,-0.754,-1.322
1416.0,-6.5726,-10.3272,0.3891,1.7808,-0.754,-1.322
1420.0,-6.5726,-10.3272,0.3891,1.7808,-0.754,-1.322
1425.0,-4.8341,-6.7711,0.0763,1.7808,-0.754,-1.322
1430.0,-4.8341,-6.7711,0.0763,1.7808,-0.754,-1.322
1435.0,-4.8341,-6.7711,0.0763,1.7808,-0.754,-1.322
1440.0,-4.8341,-6.7711,0.0763,1.7741,0.1788,-1.0623
1445.0,-4.8341,-6.7711,0.0763,1.7741,0.1788,-1.0623
1450.0,-4.8341,-6.7711,0.0763,1.7741,0.1788,-1.0623
1455.0,-5.0831,-5.0455,2.5217,1.7741,0.1788,-1.0623
1461.0,-5.0831,-5.0455,2.5217,1.7741,0.1788,-1.0623
1465.0,-5.0831,-5.0455,2.5217,1.7741,0.1788,-1.0623
1470.0,-5.0831,-5.0455,2.5217,-0.5613,2.9351,0.2877
1475.0,-5.0831,-5.0455,2.5217,-0.5613,2.9351,0.2877
1480.0,-5.0017,-5.4841,0.1237,-0.5613,2.9351,0.2877
1485.0,-5.0017,-5.4841,0.1237,-0.5613,2.9351,0.2877
1490.0,-5.0017,-5.4841,0.1237,-0.5613,2.9351,0.2877
1496.0,-5.0017,-5.4841,0.1237,-0.5613,2.9351,0.2877
1500.0,-5.0017,-5.4841,0.1237,-0.5613,2.9351,0.2877
1505.0,-5.0017,-5.4841,0.1237,-3.1122,3.1843,0.3561
1510.0,-5.3513,-5.2887,-10.0226,-3.1122,3.1843,0.3561
1515.0,-5.3513,-5.2887,-10.0226,-3.1122,3.1843,0.3561
1520.0,-5.3513,-5.2887,-10.0226,-3.1122,3.1843,0.3561
1525.0,-5.3513,-5.2887,-10.0226,-3.1122,3.1843,0.3561
1530.0,-5.3513,-5.2887,-10.0226,-3.1122,3.1843,0.3561
1535.0,-3.8906,-5.4412,-5.5015,-3.0689,-1.159,-0.5926
1540.0,-3.8906,-5.4412,-5.5015,-3.0689,-1.159,-0.5926
1545.0,-3.8906,-5.4412,-5.5015,-3.0689,-1.159,-0.5926
1550.0,-3.8906,-5.4412,-5.5015,-3.0689,-1.159,-0.5926
1555.0,-3.8906,-5.4412,-5.5015,-3.0689,-1.159,-0.5926
1561.0,-3.8906,-5.4412,-5.5015,-3.0689,-1.159,-0.5926
1565.0,-2.2287,-4.3353,-1.3501,-2.5411,-2.2799,-0.0966
1570.0,-2.2287,-4.3353,-1.3501,-2.5411,-2.2799,-0.0966
1575.0,-2.2287,-4.3353,-1.3501,-2.5411,-2.2799,-0.0966
1581.0,-2.2287,-4.3353,-1.3501,-2.5411,-2.2799,-0.0966
1586.0,-2.2287,-4.3353,-1.3501,-2.5411,-2.2799,-0.0966
1590.0,-2.2144,-5.894,-0.1464,-2.5411,-2.2799,-0.0966
1595.0,-2.2144,-5.894,-0.1464,-1.2381,-2.8083,-0.3885
1600.0,-2.2144,-5.894,-0.1464,-1.2381,-2.8083,-0.3885
1605.0,-2.2144,-5.894,-0.1464,-1.2381,-2.8083,-0.3885
1610.0,-2.2144,-5.894,-0.1464,-1.2381,-2.8083,-0.3885
1616.0,-0.6579,-4.464,1.0858,-1.2381,-2.8083,-0.3885
1620.0,-0.6579,-4.464,1.0858,-1.2381,-2.8083,-0.3885
1625.0,-0.6579,-4.464,1.0858,-1.4568,-1.0826,-1.2248
1630.0,-0.6579,-4.464,1.0858,-1.4568,-1.0826,-1.2248
1635.0,-0.6579,-4.464,1.0858,-1.4568,-1.0826,-1.2248
1640.0,-0.6579,-4.464,1.0858,-1.4568,-1.0826,-1.2248
1645.0,-1.0266,-4.8358,3.3605,-1.4568,-1.0826,-1.2248
1650.0,-1.0266,-4.8358,3.3605,-1.4568,-1.0826,-1.2248
1655.0,-1.0266,-4.8358,3.3605,-1.4568,-1.0826,-1.2248
1661.0,-1.0266,-4.8358,3.3605,-1.119,0.0737,-0.5193
1665.0,-1.0266,-4.8358,3.3605,-1.119,0.0737,-0.5193
1670.0,-1.0266,-4.8358,3.3605,-1.119,0.0737,-0.5193
1675.0,-0.8925,-8.9305,1.2421,-1.119,0.0737,-0.5193
1680.0,-0.8925,-8.9305,1.2421,-1.119,0.0737,-0.5193
1685.0,-0.8925,-8.9305,1.2421,-1.119,0.0737,-0.5193
1691.0,-0.8925,-8.9305,1.2421,-1.1489,4.2118,-0.5486
1695.0,-0.8925,-8.9305,1.2421,-1.1489,4.2118,-0.5486
1701.0,1.1764,-14.0214,-2.459,-1.1489,4.2118,-0.5486
1706.0,1.1764,-14.0214,-2.459,-1.1489,4.2118,-0.5486
1710.0,1.1764,-14.0214,-2.459,-1.1489,4.2118,-0.5486
1715.0,1.1764,-14.0214,-2.459,-1.1489,4.2118,-0.5486
1721.0,1.1764,-14.0214,-2.459,-1.1489,4.2118,-0.5486
1725.0,-0.9165,-14.46,-10.07,-1.5393,6.3706,0.9016
1730.0,-0.9165,-14.46,-10.07,-1.5393,6.3706,0.9016
1736.0,-0.9165,-14.46,-10.07,-1.5393,6.3706,0.9016
1740.0,-0.9165,-14.46,-10.07,-1.5393,6.3706,0.9016
1745.0,-0.9165,-14.46,-10.07,-1.5393,6.3706,0.9016
1752.0,-0.9165,-14.46,-10.07,-1.5393,6.3706,0.9016
1755.0,-0.8351,-11.6476,-7.3071,-0.4489,0.5441,-0.1723
1760.0,-0.8351,-11.6476,-7.3071,-0.4489,0.5441,-0.1723
1766.0,-0.8351,-11.6476,-7.3071,-0.4489,0.5441,-0.1723
1770.0,-0.8351,-11.6476,-7.3071,-0.4489,0.5441,-0.1723
1775.0,-0.8351,-11.6476,-7.3071,-0.4489,0.5441,-0.1723
1781.0,0.7358,-13.273,-1.3264,-0.4489,0.5441,-0.1723
1785.0,0.7358,-13.273,-1.3264,-0.141,-2.101,-0.5462
1790.0,0.7358,-13.273,-1.3264,-0.141,-2.101,-0.5462
1795.0,0.7358,-13.273,-1.3264,-0.141,-2.101,-0.5462
1800.0,0.7358,-13.273,-1.3264,-0.141,-2.101,-0.5462
1805.0,0.7358,-13.273,-1.3264,-0.141,-2.101,-0.5462
1810.0,2.3976,-15.7423,0.6687,-0.141,-2.101,-0.5462
1815.0,2.3976,-15.7423,0.6687,-0.3609,-2.7124,1.3573
1820.0,2.3976,-15.7423,0.6687,-0.3609,-2.7124,1.3573
1825.0,2.3976,-15.7423,0.6687,-0.3609,-2.7124,1.3573
1830.0,2.3976,-15.7423,0.6687,-0.3609,-2.7124,1.3573
1835.0,8.0346,-16.2094,-2.3548,-0.3609,-2.7124,1.3573
1840.0,8.0346,-16.2094,-2.3548,-0.3609,-2.7124,1.3573
1845.0,8.0346,-16.2094,-2.3548,-1.5765,3.629,0.6951
1850.0,8.0346,-16.2094,-2.3548,-1.5765,3.629,0.6951
1856.0,8.0346,-16.2094,-2.3548,-1.5765,3.629,0.6951
1860.0,2.7042,-14.1358,2.825,-1.5765,3.629,0.6951
1865.0,2.7042,-14.1358,2.825,-1.5765,3.629,0.6951
1870.0,2.7042,-14.1358,2.825,-1.5765,3.629,0.6951
1876.0,2.7042,-14.1358,2.825,-1.5765,3.629,0.6951
1880.0,2.7042,-14.1358,2.825,-1.0139,1.5997,0.6737
1885.0,0.6352,-10.413,2.3937,-1.0139,1.5997,0.6737
1890.0,0.6352,-10.413,2.3937,-1.0139,1.5997,0.6737
1895.0,0.6352,-10.413,2.3937,-1.0139,1.5997,0.6737
1900.0,0.6352,-10.413,2.3937,-1.0139,1.5997,0.6737
1905.0,0.6352,-10.413,2.3937,-1.0139,1.5997,0.6737
1911.0,0.6352,-10.413,2.3937,0.0649,0.1122,0.3078
1916.0,0.0222,-8.6302,1.1616,0.0649,0.1122,0.3078
1920.0,0.0222,-8.6302,1.1616,0.0649,0.1122,0.3078
1925.0,0.0222,-8.6302,1.1616,0.0649,0.1122,0.3078
1930.0,0.0222,-8.6302,1.1616,0.0649,0.1122,0.3078
1936.0,0.0222,-8.6302,1.1616,0.0649,0.1122,0.3078
1942.0,0.2808,-12.9918,0.4981,0.2451,-1.4907,0.3341
1945.0,0.2808,-12.9918,0.4981,0.2451,-1.4907,0.3341
1951.0,0.2808,-12.9918,0.4981,0.2451,-1.4907,0.3341
1955.0,0.2808,-12.9918,0.4981,0.2451,-1.4907,0.3341
1960.0,0.2808,-12.9918,0.4981,0.2451,-1.4907,0.3341
1965.0,1.708,-13.3159,-0.9805,0.2451,-1.4907,0.3341
1970.0,1.708,-13.3159,-0.9805,0.2506,-3.1101,-0.0367
1975.0,1.708,-13.3159,-0.9805,0.2506,-3.1101,-0.0367
1980.0,1.708,-13.3159,-0.9805,0.2506,-3.1101,-0.0367
1985.0,1.708,-13.3159,-0.9805,0.2506,-3.1101,-0.0367
1990.0,1.708,-13.3159,-0.9805,0.2506,-3.1101,-0.0367
1995.0,2.6084,-10.5274,-2.5207,0.2506,-3.1101,-0.0367
2001.0,2.6084,-10.5274,-2.5207,0.2506,-3.1101,-0.0367
2005.0,2.6084,-10.5274,-2.5207,-0.4458,1.2209,-0.6085
2010.0,2.6084,-10.5274,-2.5207,-0.4458,1.2209,-0.6085
2015.0,2.6084,-10.5274,-2.5207,-0.4458,1.2209,-0.6085
2021.0,0.6544,-10.2747,0.4886,-0.4458,1.2209,-0.6085
2026.0,0.6544,-10.2747,0.4886,-0.4458,1.2209,-0.6085
2031.0,0.6544,-10.2747,0.4886,-0.4458,1.2209,-0.6085
2035.0,0.6544,-10.2747,0.4886,-0.1972,0.7683,0.9382
2040.0,0.6544,-10.2747,0.4886,-0.1972,0.7683,0.9382
2045.0,0.3814,-7.9152,-1.0136,-0.1972,0.7683,0.9382
2050.0,0.3814,-7.9152,-1.0136,-0.1972,0.7683,0.9382
2055.0,0.3814,-7.9152,-1.0136,-0.1972,0.7683,0.9382
2061.0,0.3814,-7.9152,-1.0136,-0.1972,0.7683,0.9382
2065.0,0.3814,-7.9152,-1.0136,-0.1972,0.7683,0.9382
2070.0,0.6975,-7.3336,-0.625,-0.05,-0.9556,0.7025
2075.0,0.6975,-7.3336,-0.625,-0.05,-0.9556,0.7025
2080.0,0.6975,-7.3336,-0.625,-0.05,-0.9556,0.7025
2086.0,0.6975,-7.3336,-0.625,-0.05,-0.9556,0.7025
2090.0,0.6975,-7.3336,-0.625,-0.05,-0.9556,0.7025
2095.0,0.6975,-7.3336,-0.625,-0.05,-0.9556,0.7025
2100.0,0.0749,-8.5491,-0.3265,0.071,-1.4907,0.3335
2105.0,0.0749,-8.5491,-0.3265,0.071,-1.4907,0.3335
2110.0,0.0749,-8.5491,-0.3265,0.071,-1.4907,0.3335
2115.0,0.0749,-8.5491,-0.3265,0.071,-1.4907,0.3335
2120.0,0.0749,-8.5491,-0.3265,0.071,-1.4907,0.3335
2125.0,-1.1799,-11.0041,-2.7055,0.071,-1.4907,0.3335
2131.0,-1.1799,-11.0041,-2.7055,0.0502,-0.6208,0.6951
2135.0,-1.1799,-11.0041,-2.7055,0.0502,-0.6208,0.6951
2140.0,-1.1799,-11.0041,-2.7055,0.0502,-0.6208,0.6951
2145.0,-1.1799,-11.0041,-2.7055,0.0502,-0.6208,0.6951
2150.0,0.8986,-9.3976,-0.2649,0.0502,-0.6208,0.6951
2155.0,0.8986,-9.3976,-0.2649,0.0502,-0.6208,0.6951
2160.0,0.8986,-9.3976,-0.2649,0.0252,0.0591,-0.1772
2165.0,0.8986,-9.3976,-0.2649,0.0252,0.0591,-0.1772
2170.0,0.8986,-9.3976,-0.2649,0.0252,0.0591,-0.1772
2175.0,0.8986,-9.3976,-0.2649,0.0252,0.0591,-0.1772
2180.0,0.7406,-7.1525,0.3749,0.0252,0.0591,-0.1772
2186.0,0.7406,-7.1525,0.3749,0.0252,0.0591,-0.1772
2191.0,0.7406,-7.1525,0.3749,-0.0243,0.2295,-0.3739
2196.0,0.7406,-7.1525,0.3749,-0.0243,0.2295,-0.3739
2200.0,0.7406,-7.1525,0.3749,-0.0243,0.2295,-0.3739
2205.0,0.1084,-6.1276,-1.5018,-0.0243,0.2295,-0.3739
2211.0,0.1084,-6.1276,-1.5018,-0.0243,0.2295,-0.3739
2215.0,0.1084,-6.1276,-1.5018,-0.0243,0.2295,-0.3739
2220.0,0.1084,-6.1276,-1.5018,0.1241,0.1898,-0.4014
2225.0,0.1084,-6.1276,-1.5018,0.1241,0.1898,-0.4014
2230.0,0.3191,-9.3547,-3.0656,0.1241,0.1898,-0.4014
2235.0,0.3191,-9.3547,-3.0656,0.1241,0.1898,-0.4014
2240.0,0.3191,-9.3547,-3.0656,0.1241,0.1898,-0.4014
2246.0,0.3191,-9.3547,-3.0656,0.1241,0.1898,-0.4014
2250.0,0.3191,-9.3547,-3.0656,0.1241,0.1898,-0.4014
2255.0,-0.337,-8.7303,-1.298,-0.1001,-0.3942,-0.4496
2260.0,-0.337,-8.7303,-1.298,-0.1001,-0.3942,-0.4496
2265.0,-0.337,-8.7303,-1.298,-0.1001,-0.3942,-0.4496
2270.0,-0.337,-8.7303,-1.298,-0.1001,-0.3942,-0.4496
2275.0,-0.337,-8.7303,-1.298,-0.1001,-0.3942,-0.4496
2280.0,-0.337,-8.7303,-1.298,-0.1001,-0.3942,-0.4496
2285.0,-0.2173,-7.8818,0.1143,0.0722,-1.236,-0.4735
2290.0,-0.2173,-7.8818,0.1143,0.0722,-1.236,-0.4735
2295.0,-0.2173,-7.8818,0.1143,0.0722,-1.236,-0.4735
2301.0,-0.2173,-7.8818,0.1143,0.0722,-1.236,-0.4735
2305.0,-0.2173,-7.8818,0.1143,0.0722,-1.236,-0.4735
2310.0,-1.8695,-8.3918,-1.6345,0.0722,-1.236,-0.4735
2316.0,-1.8695,-8.3918,-1.6345,0.0722,-1.236,-0.4735
2320.0,-1.8695,-8.3918,-1.6345,0.4009,-0.8902,-0.132
2326.0,-1.8695,-8.3918,-1.6345,0.4009,-0.8902,-0.132
2330.0,-1.8695,-8.3918,-1.6345,0.4009,-0.8902,-0.132
2335.0,-1.8695,-8.3918,-1.6345,0.4009,-0.8902,-0.132
2341.0,0.1611,-8.0725,-0.971,0.4009,-0.8902,-0.132
2346.0,0.1611,-8.0725,-0.971,0.4009,-0.8902,-0.132
2350.0,0.1611,-8.0725,-0.971,0.1693,0.0072,-0.4301
2355.0,0.1611,-8.0725,-0.971,0.1693,0.0072,-0.4301
2360.0,0.1611,-8.0725,-0.971,0.1693,0.0072,-0.4301
2365.0,1.0806,-9.0306,0.4176,0.1693,0.0072,-0.4301
2370.0,1.0806,-9.0306,0.4176,0.1693,0.0072,-0.4301
2375.0,1.0806,-9.0306,0.4176,0.1693,0.0072,-0.4301
2380.0,1.0806,-9.0306,0.4176,0.1693,0.0072,-0.4301
2385.0,1.0806,-9.0306,0.4176,-0.0909,0.8275,-0.3739
2390.0,1.0806,-9.0306,0.4176,-0.0909,0.8275,-0.3739
2396.0,0.1659,-9.1545,-3.2315,-0.0909,0.8275,-0.3739
2400.0,0.1659,-9.1545,-3.2315,-0.0909,0.8275,-0.3739
2405.0,0.1659,-9.1545,-3.2315,-0.0909,0.8275,-0.3739
2410.0,0.1659,-9.1545,-3.2315,-0.0909,0.8275,-0.3739
2415.0,0.1659,-9.1545,-3.2315,-0.2271,0.9583,-0.6304
2420.0,0.1659,-9.1545,-3.2315,-0.2271,0.9583,-0.6304
2425.0,-0.8494,-9.4215,-2.6012,-0.2271,0.9583,-0.6304
2430.0,-0.8494,-9.4215,-2.6012,-0.2271,0.9583,-0.6304
2435.0,-0.8494,-9.4215,-2.6012,-0.2271,0.9583,-0.6304
2440.0,-0.8494,-9.4215,-2.6012,-0.2271,0.9583,-0.6304
2445.0,-0.8494,-9.4215,-2.6012,-0.2271,0.9583,-0.6304
2450.0,-0.9165,-10.2986,-4.1225,-0.0634,0.3877,-0.617
2455.0,-0.9165,-10.2986,-4.1225,-0.0634,0.3877,-0.617
2460.0,-0.9165,-10.2986,-4.1225,-0.0634,0.3877,-0.617
2465.0,-0.9165,-10.2986,-4.1225,-0.0634,0.3877,-0.617
2470.0,-0.9165,-10.2986,-4.1225,-0.0634,0.3877,-0.617
2475.0,-0.9165,-10.2986,-4.1225,-0.0634,0.3877,-0.617
2480.0,-0.6579,-13.2254,-2.279,0.2708,0.2332,-1.4301
2485.0,-0.6579,-13.2254,-2.279,0.2708,0.2332,-1.4301
2490.0,-0.6579,-13.2254,-2.279,0.2708,0.2332,-1.4301
2495.0,-0.6579,-13.2254,-2.279,0.2708,0.2332,-1.4301
2500.0,-0.6579,-13.2254,-2.279,0.2708,0.2332,-1.4301
2505.0,-0.7584,-12.8822,-1.6108,0.2708,0.2332,-1.4301
2510.0,-0.7584,-12.8822,-1.6108,0.611,1.2753,-1.9829
2515.0,-0.7584,-12.8822,-1.6108,0.611,1.2753,-1.9829
2520.0,-0.7584,-12.8822,-1.6108,0.611,1.2753,-1.9829
2525.0,-0.7584,-12.8822,-1.6108,0.611,1.2753,-1.9829
2530.0,-0.7584,-12.8822,-1.6108,0.611,1.2753,-1.9829
2535.0,0.1611,-12.3483,-1.5207,0.611,1.2753,-1.9829
2541.0,0.1611,-12.3483,-1.5207,0.8804,1.348,-2.2041
2545.0,0.1611,-12.3483,-1.5207,0.8804,1.348,-2.2041
2550.0,0.1611,-12.3483,-1.5207,0.8804,1.348,-2.2041
2556.0,0.1611,-12.3483,-1.5207,0.8804,1.348,-2.2041
2560.0,1.7511,-11.0327,-2.2885,0.8804,1.348,-2.2041
2565.0,1.7511,-11.0327,-2.2885,0.8804,1.348,-2.2041
2570.0,1.7511,-11.0327,-2.2885,0.8804,1.348,-2.2041
2575.0,1.7511,-11.0327,-2.2885,0.9195,0.6528,-2.0025
2580.0,1.7511,-11.0327,-2.2885,0.9195,0.6528,-2.0025
2585.0,3.3699,-9.7647,-2.5586,0.9195,0.6528,-2.0025
2591.0,3.3699,-9.7647,-2.5586,0.9195,0.6528,-2.0025
2596.0,3.3699,-9.7647,-2.5586,0.9195,0.6528,-2.0025
2600.0,3.3699,-9.7647,-2.5586,0.9195,0.6528,-2.0025
2606.0,3.3699,-9.7647,-2.5586,0.2689,0.1825,-1.8583
2610.0,3.3699,-9.7647,-2.5586,0.2689,0.1825,-1.8583
2615.0,2.6419,-10.78,-2.2126,0.2689,0.1825,-1.8583
2621.0,2.6419,-10.78,-2.2126,0.2689,0.1825,-1.8583
2625.0,2.6419,-10.78,-2.2126,0.2689,0.1825,-1.8583
2630.0,2.6419,-10.78,-2.2126,0.2689,0.1825,-1.8583
2635.0,2.6419,-10.78,-2.2126,0.5347,-0.1694,-1.4191
2640.0,-0.2508,-11.3044,-2.8382,0.5347,-0.1694,-1.4191
2646.0,-0.2508,-11.3044,-2.8382,0.5347,-0.1694,-1.4191
2650.0,-0.2508,-11.3044,-2.8382,0.5347,-0.1694,-1.4191
2655.0,-0.2508,-11.3044,-2.8382,0.5347,-0.1694,-1.4191
2660.0,-0.2508,-11.3044,-2.8382,0.5347,-0.1694,-1.4191
2665.0,0.4053,-9.8981,-3.7102,0.5347,-0.1694,-1.4191
2671.0,0.4053,-9.8981,-3.7102,0.8981,-0.1639,-0.6989
2675.0,0.4053,-9.8981,-3.7102,0.8981,-0.1639,-0.6989
2680.0,0.4053,-9.8981,-3.7102,0.8981,-0.1639,-0.6989
2685.0,0.4053,-9.8981,-3.7102,0.8981,-0.1639,-0.6989
2690.0,0.4053,-9.8981,-3.7102,0.8981,-0.1639,-0.6989
2695.0,1.5595,-9.4453,-4.549,0.8981,-0.1639,-0.6989
2700.0,1.5595,-9.4453,-4.549,0.8981,-0.1639,-0.6989
2706.0,1.5595,-9.4453,-4.549,0.7735,-0.1639,-0.1369
2710.0,1.5595,-9.4453,-4.549,0.7735,-0.1639,-0.1369
2715.0,1.5595,-9.4453,-4.549,0.7735,-0.1639,-0.1369
2721.0,0.4868,-8.8304,-3.9708,0.7735,-0.1639,-0.1369
2725.0,0.4868,-8.8304,-3.9708,0.7735,-0.1639,-0.1369
2730.0,0.4868,-8.8304,-3.9708,0.7735,-0.1639,-0.1369
2735.0,0.4868,-8.8304,-3.9708,0.4271,-0.3985,0.2406
2740.0,0.4868,-8.8304,-3.9708,0.4271,-0.3985,0.2406
2745.0,0.4868,-8.8304,-3.9708,0.4271,-0.3985,0.2406
2750.0,-0.6674,-8.0629,-2.0562,0.4271,-0.3985,0.2406
2755.0,-0.6674,-8.0629,-2.0562,0.4271,-0.3985,0.2406
2760.0,-0.6674,-8.0629,-2.0562,0.4271,-0.3985,0.2406
2766.0,-0.6674,-8.0629,-2.0562,0.2017,-0.2971,0.777
2770.0,-0.6674,-8.0629,-2.0562,0.2017,-0.2971,0.777
2775.0,-0.6674,-8.0629,-2.0562,0.2017,-0.2971,0.777
2780.0,-0.8063,-7.1191,-0.5113,0.2017,-0.2971,0.777
2785.0,-0.8063,-7.1191,-0.5113,0.2017,-0.2971,0.777
2790.0,-0.8063,-7.1191,-0.5113,0.2017,-0.2971,0.777
2795.0,-0.8063,-7.1191,-0.5113,0.0722,0.2625,1.3023
2801.0,-0.8063,-7.1191,-0.5113,0.0722,0.2625,1.3023
2805.0,1.3009,-7.3813,-1.2127,0.0722,0.2625,1.3023
2810.0,1.3009,-7.3813,-1.2127,0.0722,0.2625,1.3023
2816.0,1.3009,-7.3813,-1.2127,0.0722,0.2625,1.3023
2820.0,1.3009,-7.3813,-1.2127,0.0722,0.2625,1.3023
2825.0,1.3009,-7.3813,-1.2127,-0.1678,0.9357,1.5339
2830.0,2.2875,-8.5682,-2.4069,-0.1678,0.9357,1.5339
2835.0,2.2875,-8.5682,-2.4069,-0.1678,0.9357,1.5339
2840.0,2.2875,-8.5682,-2.4069,-0.1678,0.9357,1.5339
2846.0,2.2875,-8.5682,-2.4069,-0.1678,0.9357,1.5339
2850.0,2.2875,-8.5682,-2.4069,-0.1678,0.9357,1.5339
2855.0,2.2875,-8.5682,-2.4069,-0.1678,0.9357,1.5339
2860.0,0.6687,-8.8876,-3.9045,-0.0054,1.6504,1.9505
2865.0,0.6687,-8.8876,-3.9045,-0.0054,1.6504,1.9505
2871.0,0.6687,-8.8876,-3.9045,-0.0054,1.6504,1.9505
2875.0,0.6687,-8.8876,-3.9045,-0.0054,1.6504,1.9505
2880.0,0.6687,-8.8876,-3.9045,-0.0054,1.6504,1.9505
2885.0,-0.9261,-8.0677,-3.8381,-0.0054,1.6504,1.9505
2890.0,-0.9261,-8.0677,-3.8381,-0.1312,1.808,2.1209
2895.0,-0.9261,-8.0677,-3.8381,-0.1312,1.808,2.1209
2900.0,-0.9261,-8.0677,-3.8381,-0.1312,1.808,2.1209
2906.0,-0.9261,-8.0677,-3.8381,-0.1312,1.808,2.1209
2911.0,-0.6196,-6.4088,-2.8429,-0.1312,1.808,2.1209
2915.0,-0.6196,-6.4088,-2.8429,-0.1312,1.808,2.1209
2920.0,-0.6196,-6.4088,-2.8429,-0.0701,1.5368,1.5833
2926.0,-0.6196,-6.4088,-2.8429,-0.0701,1.5368,1.5833
2930.0,-0.6196,-6.4088,-2.8429,-0.0701,1.5368,1.5833
2936.0,0.8891,-6.7044,-2.9756,-0.0701,1.5368,1.5833
2940.0,0.8891,-6.7044,-2.9756,-0.0701,1.5368,1.5833
2946.0,0.8891,-6.7044,-2.9756,-0.0701,1.5368,1.5833
2950.0,0.8891,-6.7044,-2.9756,-0.2503,1.0878,0.5613
2955.0,0.8891,-6.7044,-2.9756,-0.2503,1.0878,0.5613
2960.0,0.8891,-6.7044,-2.9756,-0.2503,1.0878,0.5613
2965.0,3.0969,-9.5835,-3.914,-0.2503,1.0878,0.5613
2970.0,3.0969,-9.5835,-3.914,-0.2503,1.0878,0.5613
2976.0,3.0969,-9.5835,-3.914,-0.2503,1.0878,0.5613
2980.0,3.0969,-9.5835,-3.914,-0.5221,0.0316,0.8869
2985.0,3.0969,-9.5835,-3.914,-0.5221,0.0316,0.8869
2990.0,3.8967,-7.6816,-2.786,-0.5221,0.0316,0.8869
2996.0,3.8967,-7.6816,-2.786,-0.5221,0.0316,0.8869
3000.0,3.8967,-7.6816,-2.786,-0.5221,0.0316,0.8869
3005.0,3.8967,-7.6816,-2.786,-0.5221,0.0316,0.8869
3011.0,3.8967,-7.6816,-2.786,-0.6272,-1.0948,0.3934
3016.0,3.9829,-3.7871,-2.7576,-0.6272,-1.0948,0.3934
3021.0,3.9829,-3.7871,-2.7576,-0.6272,-1.0948,0.3934
3025.0,3.9829,-3.7871,-2.7576,-0.6272,-1.0948,0.3934
3030.0,3.9829,-3.7871,-2.7576,-0.6272,-1.0948,0.3934
3035.0,3.9829,-3.7871,-2.7576,-0.6272,-1.0948,0.3934
3040.0,3.9829,-3.7871,-2.7576,-0.6272,-1.0948,0.3934
3045.0,3.7578,-2.6764,-2.2363,-0.9632,-0.4913,-1.7148
3050.0,3.7578,-2.6764,-2.2363,-0.9632,-0.4913,-1.7148
3056.0,3.7578,-2.6764,-2.2363,-0.9632,-0.4913,-1.7148
3060.0,3.7578,-2.6764,-2.2363,-0.9632,-0.4913,-1.7148
3065.0,3.7578,-2.6764,-2.2363,-0.9632,-0.4913,-1.7148
3070.0,1.368,-4.7357,-5.7717,-0.9632,-0.4913,-1.7148
3075.0,1.368,-4.7357,-5.7717,0.0533,-1.5341,0.2999
3080.0,1.368,-4.7357,-5.7717,0.0533,-1.5341,0.2999
3085.0,1.368,-4.7357,-5.7717,0.0533,-1.5341,0.2999
3091.0,1.368,-4.7357,-5.7717,0.0533,-1.5341,0.2999
3095.0,1.5069,-11.3044,-1.5207,0.0533,-1.5341,0.2999
3100.0,1.5069,-11.3044,-1.5207,0.0533,-1.5341,0.2999
3105.0,1.5069,-11.3044,-1.5207,0.0124,-4.1535,1.0415
3110.0,1.5069,-11.3044,-1.5207,0.0124,-4.1535,1.0415
3116.0,1.5069,-11.3044,-1.5207,0.0124,-4.1535,1.0415
3120.0,1.5069,-11.3044,-1.5207,0.0124,-4.1535,1.0415
3125.0,0.4915,-18.6357,1.863,0.0124,-4.1535,1.0415
3130.0,0.4915,-18.6357,1.863,0.0124,-4.1535,1.0415
3135.0,0.4915,-18.6357,1.863,0.0124,-4.1535,1.0415
3140.0,0.4915,-18.6357,1.863,0.0576,-0.8676,0.5485
3146.0,0.4915,-18.6357,1.863,0.0576,-0.8676,0.5485
3150.0,2.4599,-18.445,3.9576,0.0576,-0.8676,0.5485
3155.0,2.4599,-18.445,3.9576,0.0576,-0.8676,0.5485
3160.0,2.4599,-18.445,3.9576,0.0576,-0.8676,0.5485
3165.0,2.4599,-18.445,3.9576,0.0576,-0.8676,0.5485
3170.0,2.4599,-18.445,3.9576,-1.0029,-0.2121,1.3854
3176.0,-4.3695,-13.3589,-7.6815,-1.0029,-0.2121,1.3854
3180.0,-4.3695,-13.3589,-7.6815,-1.0029,-0.2121,1.3854
3186.0,-4.3695,-13.3589,-7.6815,-1.0029,-0.2121,1.3854
3190.0,-4.3695,-13.3589,-7.6815,-1.0029,-0.2121,1.3854
3195.0,-4.3695,-13.3589,-7.6815,-1.0029,-0.2121,1.3854
3201.0,-4.3695,-13.3589,-7.6815,-0.4158,-1.1125,-0.0061
3205.0,-1.0219,-10.78,3.7349,-0.4158,-1.1125,-0.0061
3210.0,-1.0219,-10.78,3.7349,-0.4158,-1.1125,-0.0061
3216.0,-1.0219,-10.78,3.7349,-0.4158,-1.1125,-0.0061
3220.0,-1.0219,-10.78,3.7349,-0.4158,-1.1125,-0.0061
3226.0,-1.0219,-10.78,3.7349,-0.4158,-1.1125,-0.0061
3230.0,-1.1368,-19.284,0.1095,-0.4158,-1.1125,-0.0061
3236.0,-1.1368,-19.284,0.1095,-0.8441,1.8098,0.8155
3240.0,-1.1368,-19.284,0.1095,-0.8441,1.8098,0.8155
3246.0,-1.1368,-19.284,0.1095,-0.8441,1.8098,0.8155
3250.0,-1.1368,-19.284,0.1095,-0.8441,1.8098,0.8155
3255.0,-1.1368,-19.284,0.1095,-0.8441,1.8098,0.8155
3260.0,0.4245,-13.4637,-3.7812,-0.8441,1.8098,0.8155
3265.0,0.4245,-13.4637,-3.7812,0.7699,-0.7601,-0.4429
3270.0,0.4245,-13.4637,-3.7812,0.7699,-0.7601,-0.4429
3275.0,0.4245,-13.4637,-3.7812,0.7699,-0.7601,-0.4429
3280.0,0.4245,-13.4637,-3.7812,0.7699,-0.7601,-0.4429
3285.0,2.1151,-6.9761,2.2516,0.7699,-0.7601,-0.4429
3290.0,2.1151,-6.9761,2.2516,0.7699,-0.7601,-0.4429
3295.0,2.1151,-6.9761,2.2516,0.1272,-0.0606,-0.2114
3300.0,2.1151,-6.9761,2.2516,0.1272,-0.0606,-0.2114
3305.0,2.1151,-6.9761,2.2516,0.1272,-0.0606,-0.2114
3310.0,1.1237,-4.2733,1.0621,0.1272,-0.0606,-0.2114
3315.0,1.1237,-4.2733,1.0621,0.1272,-0.0606,-0.2114
3320.0,1.1237,-4.2733,1.0621,0.1272,-0.0606,-0.2114
3325.0,1.1237,-4.2733,1.0621,0.1272,-0.0606,-0.2114
3330.0,1.1237,-4.2733,1.0621,-0.009,0.5765,0.0256
3335.0,1.1237,-4.2733,1.0621,-0.009,0.5765,0.0256
3340.0,1.095,-5.6319,1.2801,-0.009,0.5765,0.0256
3345.0,1.095,-5.6319,1.2801,-0.009,0.5765,0.0256
3350.0,1.095,-5.6319,1.2801,-0.009,0.5765,0.0256
3355.0,1.095,-5.6319,1.2801,-0.009,0.5765,0.0256
3360.0,1.095,-5.6319,1.2801,-0.2857,1.0133,0.3005
3365.0,1.7846,-12.253,2.171,-0.2857,1.0133,0.3005
3370.0,1.7846,-12.253,2.171,-0.2857,1.0133,0.3005
3376.0,1.7846,-12.253,2.171,-0.2857,1.0133,0.3005
3380.0,1.7846,-12.253,2.171,-0.2857,1.0133,0.3005
3385.0,1.7846,-12.253,2.171,-0.2857,1.0133,0.3005
3391.0,1.6553,-12.7678,1.6971,-0.5557,1.2613,0.945
3396.0,1.6553,-12.7678,1.6971,-0.5557,1.2613,0.945
3400.0,1.6553,-12.7678,1.6971,-0.5557,1.2613,0.945
3405.0,1.6553,-12.7678,1.6971,-0.5557,1.2613,0.945
3410.0,1.6553,-12.7678,1.6971,-0.5557,1.2613,0.945
3416.0,1.3249,-7.3145,0.337,-0.5557,1.2613,0.945
3420.0,1.3249,-7.3145,0.337,-0.5557,1.2613,0.945
3425.0,1.3249,-7.3145,0.337,-0.4556,0.855,2.0586
3430.0,1.3249,-7.3145,0.337,-0.4556,0.855,2.0586
3436.0,1.3249,-7.3145,0.337,-0.4556,0.855,2.0586
3440.0,1.3249,-7.3145,0.337,-0.4556,0.855,2.0586
3445.0,0.2664,-6.1038,-10.397,-0.4556,0.855,2.0586
3450.0,0.2664,-6.1038,-10.397,-0.4556,0.855,2.0586
3456.0,0.2664,-6.1038,-10.397,-0.0854,-2.2494,1.2394
3460.0,0.2664,-6.1038,-10.397,-0.0854,-2.2494,1.2394
3465.0,0.2664,-6.1038,-10.397,-0.0854,-2.2494,1.2394
3470.0,0.9082,-10.3176,-2.1226,-0.0854,-2.2494,1.2394
3476.0,0.9082,-10.3176,-2.1226,-0.0854,-2.2494,1.2394
3480.0,0.9082,-10.3176,-2.1226,-0.0854,-2.2494,1.2394
3485.0,0.9082,-10.3176,-2.1226,-0.0866,-0.9708,0.361
3490.0,0.9082,-10.3176,-2.1226,-0.0866,-0.9708,0.361
3495.0,0.9082,-10.3176,-2.1226,-0.0866,-0.9708,0.361
3500.0,-0.0496,-11.3806,0.4697,-0.0866,-0.9708,0.361
3505.0,-0.0496,-11.3806,0.4697,-0.0866,-0.9708,0.361
3510.0,-0.0496,-11.3806,0.4697,-0.0866,-0.9708,0.361
3515.0,-0.0496,-11.3806,0.4697,-0.1568,0.6364,-0.2254
3520.0,-0.0496,-11.3806,0.4697,-0.1568,0.6364,-0.2254
3525.0,-1.0506,-8.4824,-2.7766,-0.1568,0.6364,-0.2254
3530.0,-1.0506,-8.4824,-2.7766,-0.1568,0.6364,-0.2254
3535.0,-1.0506,-8.4824,-2.7766,-0.1568,0.6364,-0.2254
3541.0,-1.0506,-8.4824,-2.7766,-0.1568,0.6364,-0.2254
3546.0,-1.0506,-8.4824,-2.7766,-0.0212,0.6486,-0.8717
3550.0,-1.0506,-8.4824,-2.7766,-0.0212,0.6486,-0.8717
3555.0,-0.1358,-7.6625,-1.3406,-0.0212,0.6486,-0.8717
3560.0,-0.1358,-7.6625,-1.3406,-0.0212,0.6486,-0.8717
3565.0,-0.1358,-7.6625,-1.3406,-0.0212,0.6486,-0.8717
3571.0,-0.1358,-7.6625,-1.3406,-0.0212,0.6486,-0.8717
3575.0,-0.1358,-7.6625,-1.3406,-0.0182,0.5478,-0.6592
3580.0,-0.5477,-9.3071,-1.6961,-0.0182,0.5478,-0.6592
3585.0,-0.5477,-9.3071,-1.6961,-0.0182,0.5478,-0.6592
3590.0,-0.5477,-9.3071,-1.6961,-0.0182,0.5478,-0.6592
3595.0,-0.5477,-9.3071,-1.6961,-0.0182,0.5478,-0.6592
3600.0,-0.5477,-9.3071,-1.6961,-0.0182,0.5478,-0.6592
3605.0,-1.4385,-8.225,-0.843,-0.0182,0.5478,-0.6592
3611.0,-1.4385,-8.225,-0.843,0.0918,-0.2647,-0.5975
3615.0,-1.4385,-8.225,-0.843,0.0918,-0.2647,-0.5975
3620.0,-1.4385,-8.225,-0.843,0.0918,-0.2647,-0.5975
3625.0,-1.4385,-8.225,-0.843,0.0918,-0.2647,-0.5975
3630.0,-1.0985,-6.6281,0.6782,0.0918,-0.2647,-0.5975
3635.0,-1.0985,-6.6281,0.6782,0.0918,-0.2647,-0.5975
3640.0,-1.0985,-6.6281,0.6782,0.2518,0.2155,-0.6408
3646.0,-1.0985,-6.6281,0.6782,0.2518,0.2155,-0.6408
3651.0,-1.0985,-6.6281,0.6782,0.2518,0.2155,-0.6408
3655.0,-1.0985,-6.6281,0.6782,0.2518,0.2155,-0.6408
3660.0,-1.6397,-6.6996,0.536,0.2518,0.2155,-0.6408
3665.0,-1.6397,-6.6996,0.536,0.2518,0.2155,-0.6408
3671.0,-1.6397,-6.6996,0.536,0.3807,0.7964,-0.6292
3675.0,-1.6397,-6.6996,0.536,0.3807,0.7964,-0.6292
3680.0,-1.6397,-6.6996,0.536,0.3807,0.7964,-0.6292
3685.0,-1.108,-8.0915,-1.7103,0.3807,0.7964,-0.6292
3690.0,-1.108,-8.0915,-1.7103,0.3807,0.7964,-0.6292
3695.0,-1.108,-8.0915,-1.7103,0.3807,0.7964,-0.6292
3700.0,-1.108,-8.0915,-1.7103,0.2518,0.9748,-0.6567
3705.0,-1.108,-8.0915,-1.7103,0.2518,0.9748,-0.6567
3710.0,0.8316,-8.8924,-2.1889,0.2518,0.9748,-0.6567
3716.0,0.8316,-8.8924,-2.1889,0.2518,0.9748,-0.6567
3720.0,0.8316,-8.8924,-2.1889,0.2518,0.9748,-0.6567
3725.0,0.8316,-8.8924,-2.1889,0.2518,0.9748,-0.6567
3730.0,0.8316,-8.8924,-2.1889,0.2347,1.1061,-0.8846
3735.0,1.8182,-8.6016,-2.0989,0.2347,1.1061,-0.8846
3740.0,1.8182,-8.6016,-2.0989,0.2347,1.1061,-0.8846
3752.0,1.8182,-8.6016,-2.0989,0.2347,1.1061,-0.8846
3754.0,1.8182,-8.6016,-2.0989,0.2347,1.1061,-0.8846
3755.0,1.8182,-8.6016,-2.0989,0.2347,1.1061,-0.8846
3761.0,1.8182,-8.6016,-2.0989,0.2347,1.1061,-0.8846
3766.0,1.8182,-8.6016,-2.0989,0.2347,1.1061,-0.8846
3770.0,3.3795,-9.083,-5.7574,0.1749,0.3016,-1.5242
3775.0,3.3795,-9.083,-5.7574,0.1749,0.3016,-1.5242
3781.0,3.3795,-9.083,-5.7574,0.1749,0.3016,-1.5242
3785.0,3.3795,-9.083,-5.7574,0.1749,0.3016,-1.5242
3790.0,3.3795,-9.083,-5.7574,0.1749,0.3016,-1.5242
3795.0,1.6314,-12.5247,-1.7056,0.1749,0.3016,-1.5242
3800.0,1.6314,-12.5247,-1.7056,0.5389,0.6461,-2.6366
3806.0,1.6314,-12.5247,-1.7056,0.5389,0.6461,-2.6366
3811.0,1.6314,-12.5247,-1.7056,0.5389,0.6461,-2.6366
3815.0,1.6314,-12.5247,-1.7056,0.5389,0.6461,-2.6366
3820.0,0.3575,-13.2254,-1.6771,0.5389,0.6461,-2.6366
3826.0,0.3575,-13.2254,-1.6771,0.5389,0.6461,-2.6366
3830.0,0.3575,-13.2254,-1.6771,0.837,0.8831,-3.4191
3835.0,0.3575,-13.2254,-1.6771,0.837,0.8831,-3.4191
3840.0,0.3575,-13.2254,-1.6771,0.837,0.8831,-3.4191
3846.0,0.3575,-13.2254,-1.6771,0.837,0.8831,-3.4191
3851.0,0.9178,-13.0156,-2.4069,0.837,0.8831,-3.4191
3855.0,0.9178,-13.0156,-2.4069,0.837,0.8831,-3.4191
3860.0,0.9178,-13.0156,-2.4069,0.837,0.8831,-3.4191
3865.0,0.9178,-13.0156,-2.4069,0.553,1.7457,-3.292
3870.0,0.9178,-13.0156,-2.4069,0.553,1.7457,-3.292
3876.0,0.9178,-13.0156,-2.4069,0.553,1.7457,-3.292
3881.0,1.1716,-13.0776,-1.5918,0.553,1.7457,-3.292
3885.0,1.1716,-13.0776,-1.5918,0.553,1.7457,-3.292
3891.0,1.1716,-13.0776,-1.5918,0.553,1.7457,-3.292
3895.0,1.1716,-13.0776,-1.5918,0.2763,1.279,-2.4142
3900.0,1.1716,-13.0776,-1.5918,0.2763,1.279,-2.4142
3905.0,2.8239,-12.5628,-4.4495,0.2763,1.279,-2.4142
3910.0,2.8239,-12.5628,-4.4495,0.2763,1.279,-2.4142
3915.0,2.8239,-12.5628,-4.4495,0.2763,1.279,-2.4142
3920.0,2.8239,-12.5628,-4.4495,0.2763,1.279,-2.4142
3925.0,2.8239,-12.5628,-4.4495,-0.2992,-0.3862,-1.7752
3931.0,4.3421,-13.3446,-5.0181,-0.2992,-0.3862,-1.7752
3935.0,4.3421,-13.3446,-5.0181,-0.2992,-0.3862,-1.7752
3940.0,4.3421,-13.3446,-5.0181,-0.2992,-0.3862,-1.7752
3946.0,4.3421,-13.3446,-5.0181,-0.2992,-0.3862,-1.7752
3950.0,4.3421,-13.3446,-5.0181,-0.2992,-0.3862,-1.7752
3955.0,4.3421,-13.3446,-5.0181,-0.2992,-0.3862,-1.7752
3961.0,3.686,-12.4722,-4.1319,-0.2821,-0.6996,-1.3494
3965.0,3.686,-12.4722,-4.1319,-0.2821,-0.6996,-1.3494
3971.0,3.686,-12.4722,-4.1319,-0.2821,-0.6996,-1.3494
3976.0,3.686,-12.4722,-4.1319,-0.2821,-0.6996,-1.3494
3980.0,3.686,-12.4722,-4.1319,-0.2821,-0.6996,-1.3494
3985.0,2.6419,-8.9162,-4.0229,-0.2821,-0.6996,-1.3494
3990.0,2.6419,-8.9162,-4.0229,0.5615,0.4421,-0.5614
3995.0,2.6419,-8.9162,-4.0229,0.5615,0.4421,-0.5614
4000.0,2.6419,-8.9162,-4.0229,0.5615,0.4421,-0.5614
4006.0,2.6419,-8.9162,-4.0229,0.5615,0.4421,-0.5614
4010.0,0.8747,-6.2992,-4.9044,0.5615,0.4421,-0.5614
4015.0,0.8747,-6.2992,-4.9044,0.5615,0.4421,-0.5614
4020.0,0.8747,-6.2992,-4.9044,0.7766,0.1855,0.8155
4025.0,0.8747,-6.2992,-4.9044,0.7766,0.1855,0.8155
4031.0,0.8747,-6.2992,-4.9044,0.7766,0.1855,0.8155
4035.0,-0.1502,-4.6499,-3.331,0.7766,0.1855,0.8155
4040.0,-0.1502,-4.6499,-3.331,0.7766,0.1855,0.8155
4045.0,-0.1502,-4.6499,-3.331,0.7766,0.1855,0.8155
4050.0,-0.1502,-4.6499,-3.331,0.0716,-0.5994,1.8173
4055.0,-0.1502,-4.6499,-3.331,0.0716,-0.5994,1.8173
4060.0,-0.1502,-4.6499,-3.331,0.0716,-0.5994,1.8173
4066.0,-0.2077,-5.67,-0.7293,0.0716,-0.5994,1.8173
4070.0,-0.2077,-5.67,-0.7293,0.0716,-0.5994,1.8173
4075.0,-0.2077,-5.67,-0.7293,0.0716,-0.5994,1.8173
4081.0,-0.2077,-5.67,-0.7293,0.0716,-0.5994,1.8173
4086.0,-0.2077,-5.67,-0.7293,0.1297,-0.4986,3.0024
4090.0,0.276,-6.6901,0.0858,0.1297,-0.4986,3.0024
4095.0,0.276,-6.6901,0.0858,0.1297,-0.4986,3.0024
4100.0,0.276,-6.6901,0.0858,0.1297,-0.4986,3.0024
4105.0,0.276,-6.6901,0.0858,0.1297,-0.4986,3.0024
4110.0,0.276,-6.6901,0.0858,0.1297,-0.4986,3.0024
4116.0,1.3057,-7.734,-0.2412,0.2439,0.4348,3.6004
4120.0,1.3057,-7.734,-0.2412,0.2439,0.4348,3.6004
4125.0,1.3057,-7.734,-0.2412,0.2439,0.4348,3.6004
4130.0,1.3057,-7.734,-0.2412,0.2439,0.4348,3.6004
4135.0,1.3057,-7.734,-0.2412,0.2439,0.4348,3.6004
4140.0,1.3057,-7.734,-0.2412,0.2439,0.4348,3.6004
4145.0,2.7808,-8.8399,-1.3833,0.2439,0.4348,3.6004
4151.0,2.7808,-8.8399,-1.3833,-0.1208,2.0573,2.868
4156.0,2.7808,-8.8399,-1.3833,-0.1208,2.0573,2.868
4160.0,2.7808,-8.8399,-1.3833,-0.1208,2.0573,2.868
4165.0,2.7808,-8.8399,-1.3833,-0.1208,2.0573,2.868
4171.0,3.3315,-8.1726,-3.3547,-0.1208,2.0573,2.868
4175.0,3.3315,-8.1726,-3.3547,-0.1623,3.4506,1.4893
4181.0,3.3315,-8.1726,-3.3547,-0.1623,3.4506,1.4893
4185.0,3.3315,-8.1726,-3.3547,-0.1623,3.4506,1.4893
4190.0,3.3315,-8.1726,-3.3547,-0.1623,3.4506,1.4893
4195.0,3.3315,-8.1726,-3.3547,-0.1623,3.4506,1.4893
4200.0,4.0835,-6.7187,-6.8474,-0.1623,3.4506,1.4893
4206.0,4.0835,-6.7187,-6.8474,-0.1623,3.4506,1.4893
4210.0,4.0835,-6.7187,-6.8474,-0.2454,2.0853,0.0403
4215.0,4.0835,-6.7187,-6.8474,-0.2454,2.0853,0.0403
4220.0,4.0835,-6.7187,-6.8474,-0.2454,2.0853,0.0403
4225.0,4.9503,-6.8093,-7.0796,-0.2454,2.0853,0.0403
4230.0,4.9503,-6.8093,-7.0796,-0.2454,2.0853,0.0403
4235.0,4.9503,-6.8093,-7.0796,-0.2454,2.0853,0.0403
4241.0,4.9503,-6.8093,-7.0796,-0.3835,0.2753,-0.1301
4245.0,4.9503,-6.8093,-7.0796,-0.3835,0.2753,-0.1301
4250.0,3.8584,-9.0544,-5.5679,-0.3835,0.2753,-0.1301
4255.0,3.8584,-9.0544,-5.5679,-0.3835,0.2753,-0.1301
4260.0,3.8584,-9.0544,-5.5679,-0.3835,0.2753,-0.1301
4265.0,3.8584,-9.0544,-5.5679,-0.3835,0.2753,-0.1301
4270.0,3.8584,-9.0544,-5.5679,-0.3199,-2.2042,0.5815
4276.0,3.8584,-9.0544,-5.5679,-0.3199,-2.2042,0.5815
4281.0,3.5279,-8.492,-1.4639,-0.3199,-2.2042,0.5815
4285.0,3.5279,-8.492,-1.4639,-0.3199,-2.2042,0.5815
4290.0,3.5279,-8.492,-1.4639,-0.3199,-2.2042,0.5815
4295.0,3.5279,-8.492,-1.4639,-0.3199,-2.2042,0.5815
4300.0,3.5279,-8.492,-1.4639,-0.6553,-3.52,0.2083
4305.0,2.594,-8.1154,-1.2079,-0.6553,-3.52,0.2083
4310.0,2.594,-8.1154,-1.2079,-0.6553,-3.52,0.2083
4315.0,2.594,-8.1154,-1.2079,-0.6553,-3.52,0.2083
4320.0,2.594,-8.1154,-1.2079,-0.6553,-3.52,0.2083
4325.0,2.594,-8.1154,-1.2079,-0.6553,-3.52,0.2083
4330.0,0.3431,-5.4126,-6.6105,-0.119,0.94,-1.4667
4336.0,0.3431,-5.4126,-6.6105,-0.119,0.94,-1.4667
4341.0,0.3431,-5.4126,-6.6105,-0.119,0.94,-1.4667
4345.0,0.3431,-5.4126,-6.6105,-0.119,0.94,-1.4667
4350.0,0.3431,-5.4126,-6.6105,-0.119,0.94,-1.4667
4356.0,0.3431,-5.4126,-6.6105,-0.119,0.94,-1.4667
4361.0,2.4264,-7.1286,-6.6484,-0.119,0.94,-1.4667
4365.0,2.4264,-7.1286,-6.6484,-0.8037,-2.7198,0.2541
4370.0,2.4264,-7.1286,-6.6484,-0.8037,-2.7198,0.2541
4376.0,2.4264,-7.1286,-6.6484,-0.8037,-2.7198,0.2541
4381.0,2.4264,-7.1286,-6.6484,-0.8037,-2.7198,0.2541
4385.0,2.4264,-7.1286,-6.6484,-0.8037,-2.7198,0.2541
4391.0,4.1362,-12.2959,2.1141,-0.8037,-2.7198,0.2541
4396.0,4.1362,-12.2959,2.1141,-0.9436,-3.7876,1.6237
4400.0,4.1362,-12.2959,2.1141,-0.9436,-3.7876,1.6237
4405.0,4.1362,-12.2959,2.1141,-0.9436,-3.7876,1.6237
4411.0,4.1362,-12.2959,2.1141,-0.9436,-3.7876,1.6237
4416.0,5.3335,-18.0923,3.6591,-0.9436,-3.7876,1.6237
4420.0,5.3335,-18.0923,3.6591,-0.9436,-3.7876,1.6237
4425.0,5.3335,-18.0923,3.6591,-0.9992,1.618,1.0842
4430.0,5.3335,-18.0923,3.6591,-0.9992,1.618,1.0842
4435.0,5.3335,-18.0923,3.6591,-0.9992,1.618,1.0842
4440.0,2.3545,-13.9404,1.9672,-0.9992,1.618,1.0842
4446.0,2.3545,-13.9404,1.9672,-0.9992,1.618,1.0842
4450.0,2.3545,-13.9404,1.9672,-0.9992,1.618,1.0842
4455.0,2.3545,-13.9404,1.9672,-0.2802,0.2375,0.7245
4460.0,2.3545,-13.9404,1.9672,-0.2802,0.2375,0.7245
4466.0,2.3545,-13.9404,1.9672,-0.2802,0.2375,0.7245
4471.0,-2.4921,-10.3367,-3.1889,-0.2802,0.2375,0.7245
4475.0,-2.4921,-10.3367,-3.1889,-0.2802,0.2375,0.7245
4481.0,-2.4921,-10.3367,-3.1889,-0.2802,0.2375,0.7245
4485.0,-2.4921,-10.3367,-3.1889,0.9873,-3.6629,-0.4038
4490.0,-2.4921,-10.3367,-3.1889,0.9873,-3.6629,-0.4038
4495.0,-2.4921,-10.3367,-3.1889,0.9873,-3.6629,-0.4038
4500.0,0.3431,-7.7817,3.1378,0.9873,-3.6629,-0.4038
4505.0,0.3431,-7.7817,3.1378,0.9873,-3.6629,-0.4038
4511.0,0.3431,-7.7817,3.1378,0.9873,-3.6629,-0.4038
4515.0,0.3431,-7.7817,3.1378,0.9873,-3.6629,-0.4038
4521.0,0.3431,-7.7817,3.1378,-0.5276,-0.6349,1.5888
4526.0,-1.7115,-13.2683,-2.2411,-0.5276,-0.6349,1.5888
4530.0,-1.7115,-13.2683,-2.2411,-0.5276,-0.6349,1.5888
4535.0,-1.7115,-13.2683,-2.2411,-0.5276,-0.6349,1.5888
4540.0,-1.7115,-13.2683,-2.2411,-0.5276,-0.6349,1.5888
4545.0,-1.7115,-13.2683,-2.2411,-0.5276,-0.6349,1.5888
4551.0,-1.7115,-13.2683,-2.2411,0.0099,-0.1346,0.4929
4555.0,4.2846,-16.6003,-3.7054,0.0099,-0.1346,0.4929
4560.0,4.2846,-16.6003,-3.7054,0.0099,-0.1346,0.4929
4565.0,4.2846,-16.6003,-3.7054,0.0099,-0.1346,0.4929
4570.0,4.2846,-16.6003,-3.7054,0.0099,-0.1346,0.4929
4575.0,4.2846,-16.6003,-3.7054,0.0099,-0.1346,0.4929
4580.0,4.6821,-11.1328,-2.6771,-0.3731,0.5038,-0.0685
4585.0,4.6821,-11.1328,-2.6771,-0.3731,0.5038,-0.0685
4590.0,4.6821,-11.1328,-2.6771,-0.3731,0.5038,-0.0685
4595.0,4.6821,-11.1328,-2.6771,-0.3731,0.5038,-0.0685
4601.0,4.6821,-11.1328,-2.6771,-0.3731,0.5038,-0.0685
4605.0,4.6821,-11.1328,-2.6771,-0.3731,0.5038,-0.0685
4610.0,1.071,-8.4252,1.0336,-0.3548,-0.1846,-0.3317
4615.0,1.071,-8.4252,1.0336,-0.3548,-0.1846,-0.3317
4620.0,1.071,-8.4252,1.0336,-0.3548,-0.1846,-0.3317
4626.0,1.071,-8.4252,1.0336,-0.3548,-0.1846,-0.3317
4631.0,1.071,-8.4252,1.0336,-0.3548,-0.1846,-0.3317
4635.0,0.1371,-7.715,1.3275,-0.3548,-0.1846,-0.3317
4640.0,0.1371,-7.715,1.3275,-0.1324,0.2827,0.0751
4645.0,0.1371,-7.715,1.3275,-0.1324,0.2827,0.0751
4650.0,0.1371,-7.715,1.3275,-0.1324,0.2827,0.0751
4655.0,0.1371,-7.715,1.3275,-0.1324,0.2827,0.0751
4660.0,-0.2843,-9.1736,1.1711,-0.1324,0.2827,0.0751
4665.0,-0.2843,-9.1736,1.1711,-0.1324,0.2827,0.0751
4670.0,-0.2843,-9.1736,1.1711,-0.0762,0.3725,0.6731
4675.0,-0.2843,-9.1736,1.1711,-0.0762,0.3725,0.6731
4680.0,-0.2843,-9.1736,1.1711,-0.0762,0.3725,0.6731
4686.0,-0.2843,-9.1736,1.1711,-0.0762,0.3725,0.6731
4691.0,-0.5094,-11.8192,0.2375,-0.0762,0.3725,0.6731
4695.0,-0.5094,-11.8192,0.2375,-0.0762,0.3725,0.6731
4700.0,-0.5094,-11.8192,0.2375,-0.0609,0.0847,1.4282
4706.0,-0.5094,-11.8192,0.2375,-0.0609,0.0847,1.4282
4710.0,-0.5094,-11.8192,0.2375,-0.0609,0.0847,1.4282
4715.0,0.6496,-9.798,-3.8144,-0.0609,0.0847,1.4282
4720.0,0.6496,-9.798,-3.8144,-0.0609,0.0847,1.4282
4725.0,0.6496,-9.798,-3.8144,-0.0609,0.0847,1.4282
4730.0,0.6496,-9.798,-3.8144,-0.0609,0.0847,1.4282
4736.0,0.6496,-9.798,-3.8144,0.1132,-1.575,1.1734
4749.0,2.6659,-7.6959,-1.8003,0.1132,-1.575,1.1734
4750.0,2.6659,-7.6959,-1.8003,0.1132,-1.575,1.1734
4754.0,2.6659,-7.6959,-1.8003,0.1132,-1.575,1.1734
4755.0,2.6659,-7.6959,-1.8003,0.1132,-1.575,1.1734
4760.0,2.6659,-7.6959,-1.8003,-0.0866,-1.3679,0.8283
4765.0,2.6659,-7.6959,-1.8003,-0.0866,-1.3679,0.8283
4770.0,2.6659,-7.6959,-1.8003,-0.0866,-1.3679,0.8283
4775.0,3.1591,-6.8045,-1.1084,-0.0866,-1.3679,0.8283
4780.0,3.1591,-6.8045,-1.1084,-0.0866,-1.3679,0.8283
4785.0,3.1591,-6.8045,-1.1084,-0.0866,-1.3679,0.8283
4791.0,3.1591,-6.8045,-1.1084,-0.1715,-0.8584,0.157
4795.0,3.1591,-6.8045,-1.1084,-0.1715,-0.8584,0.157
4800.0,1.4686,-8.2059,-1.8667,-0.1715,-0.8584,0.157
4805.0,1.4686,-8.2059,-1.8667,-0.1715,-0.8584,0.157
4810.0,1.4686,-8.2059,-1.8667,-0.1715,-0.8584,0.157
4816.0,1.4686,-8.2059,-1.8667,-0.1715,-0.8584,0.157
4820.0,1.4686,-8.2059,-1.8667,-0.1715,-0.8584,0.157
4825.0,0.1228,-9.8838,-3.4353,0.09,-1.0686,0.0665
4830.0,0.1228,-9.8838,-3.4353,0.09,-1.0686,0.0665
4835.0,0.1228,-9.8838,-3.4353,0.09,-1.0686,0.0665
4840.0,0.1228,-9.8838,-3.4353,0.09,-1.0686,0.0665
4845.0,0.1228,-9.8838,-3.4353,0.09,-1.0686,0.0665
4850.0,0.1228,-9.8838,-3.4353,0.09,-1.0686,0.0665
4855.0,-0.2173,-6.4899,-0.1701,0.1303,-1.0105,-0.3873
4860.0,-0.2173,-6.4899,-0.1701,0.1303,-1.0105,-0.3873
4865.0,-0.2173,-6.4899,-0.1701,0.1303,-1.0105,-0.3873
4870.0,-0.2173,-6.4899,-0.1701,0.1303,-1.0105,-0.3873
4875.0,-0.2173,-6.4899,-0.1701,0.1303,-1.0105,-0.3873
4880.0,-0.4711,-4.5403,0.446,0.1303,-1.0105,-0.3873
4886.0,-0.4711,-4.5403,0.446,0.0392,0.0011,-0.7099
4890.0,-0.4711,-4.5403,0.446,0.0392,0.0011,-0.7099
4895.0,-0.4711,-4.5403,0.446,0.0392,0.0011,-0.7099
4900.0,-0.4711,-4.5403,0.446,0.0392,0.0011,-0.7099
4905.0,-1.8647,-6.3183,-0.1748,0.0392,0.0011,-0.7099
4911.0,-1.8647,-6.3183,-0.1748,0.0392,0.0011,-0.7099
4915.0,-1.8647,-6.3183,-0.1748,0.1321,0.6125,-0.6732
4920.0,-1.8647,-6.3183,-0.1748,0.1321,0.6125,-0.6732
4925.0,-1.8647,-6.3183,-0.1748,0.1321,0.6125,-0.6732
4931.0,-3.9529,-12.9489,-4.2883,0.1321,0.6125,-0.6732
4935.0,-3.9529,-12.9489,-4.2883,0.1321,0.6125,-0.6732
4940.0,-3.9529,-12.9489,-4.2883,0.1321,0.6125,-0.6732
4945.0,-3.9529,-12.9489,-4.2883,0.1321,0.6125,-0.6732
4950.0,-3.9529,-12.9489,-4.2883,0.5365,-1.0521,-0.2926
4955.0,-3.9529,-12.9489,-4.2883,0.5365,-1.0521,-0.2926
4960.0,-1.9701,-9.4548,-2.9709,0.5365,-1.0521,-0.2926
4965.0,-1.9701,-9.4548,-2.9709,0.5365,-1.0521,-0.2926
4970.0,-1.9701,-9.4548,-2.9709,0.5365,-1.0521,-0.2926
4975.0,-1.9701,-9.4548,-2.9709,0.5365,-1.0521,-0.2926
4980.0,-1.9701,-9.4548,-2.9709,0.5365,-1.0521,-0.2926
4985.0,-1.9701,-9.4548,-2.9709,0.1022,0.1464,-0.898
4990.0,1.6314,-6.4899,-0.6203,0.1022,0.1464,-0.898
4995.0,1.6314,-6.4899,-0.6203,0.1022,0.1464,-0.898
5000.0,1.6314,-6.4899,-0.6203,0.1022,0.1464,-0.898
5005.0,1.6314,-6.4899,-0.6203,0.1022,0.1464,-0.898
5010.0,1.6314,-6.4899,-0.6203,0.1022,0.1464,-0.898
5016.0,3.9973,-8.8208,-6.3972,-0.2002,2.0713,-2.234
5020.0,3.9973,-8.8208,-6.3972,-0.2002,2.0713,-2.234
5025.0,3.9973,-8.8208,-6.3972,-0.2002,2.0713,-2.234
5030.0,3.9973,-8.8208,-6.3972,-0.2002,2.0713,-2.234
5035.0,3.9973,-8.8208,-6.3972,-0.2002,2.0713,-2.234
5041.0,3.0202,-12.6534,-4.203,-0.2002,2.0713,-2.234
5045.0,3.0202,-12.6534,-4.203,0.0612,1.8581,-3.157
5050.0,3.0202,-12.6534,-4.203,0.0612,1.8581,-3.157
5055.0,3.0202,-12.6534,-4.203,0.0612,1.8581,-3.157
5060.0,3.0202,-12.6534,-4.203,0.0612,1.8581,-3.157
5066.0,3.0202,-12.6534,-4.203,0.0612,1.8581,-3.157
5070.0,3.0202,-12.6534,-4.203,0.0612,1.8581,-3.157
5076.0,2.321,-13.397,-3.7623,0.6532,1.1666,-3.5248
5081.0,2.321,-13.397,-3.7623,0.6532,1.1666,-3.5248
5085.0,2.321,-13.397,-3.7623,0.6532,1.1666,-3.5248
5090.0,2.321,-13.397,-3.7623,0.6532,1.1666,-3.5248
5095.0,2.321,-13.397,-3.7623,0.6532,1.1666,-3.5248
5100.0,1.8038,-13.1634,-2.4353,0.6532,1.1666,-3.5248
5105.0,1.8038,-13.1634,-2.4353,0.6532,1.1666,-3.5248
5111.0,1.8038,-13.1634,-2.4353,0.6495,0.987,-3.0263
5115.0,1.8038,-13.1634,-2.4353,0.6495,0.987,-3.0263
5120.0,1.8038,-13.1634,-2.4353,0.6495,0.987,-3.0263
5125.0,1.8038,-13.1634,-2.4353,0.6495,0.987,-3.0263
5130.0,2.503,-12.9775,-2.8192,0.6495,0.987,-3.0263
5135.0,2.503,-12.9775,-2.8192,0.6495,0.987,-3.0263
5140.0,2.503,-12.9775,-2.8192,0.0582,0.4445,-2.3293
5146.0,2.503,-12.9775,-2.8192,0.0582,0.4445,-2.3293
5150.0,2.503,-12.9775,-2.8192,0.0582,0.4445,-2.3293
5155.0,2.6084,-13.7307,-3.4637,0.0582,0.4445,-2.3293
5160.0,2.6084,-13.7307,-3.4637,0.0582,0.4445,-2.3293
5165.0,2.6084,-13.7307,-3.4637,0.0582,0.4445,-2.3293
5170.0,2.6084,-13.7307,-3.4637,0.035,-1.2683,-1.4215
5176.0,2.6084,-13.7307,-3.4637,0.035,-1.2683,-1.4215
5181.0,3.2358,-14.2502,-4.6295,0.035,-1.2683,-1.4215
5185.0,3.2358,-14.2502,-4.6295,0.035,-1.2683,-1.4215
5190.0,3.2358,-14.2502,-4.6295,0.035,-1.2683,-1.4215
5195.0,3.2358,-14.2502,-4.6295,0.035,-1.2683,-1.4215
5200.0,3.2358,-14.2502,-4.6295,0.5432,-1.9959,-0.5853
5206.0,3.2358,-14.2502,-4.6295,0.5432,-1.9959,-0.5853
5211.0,3.0969,-11.0755,-4.2836,0.5432,-1.9959,-0.5853
5215.0,3.0969,-11.0755,-4.2836,0.5432,-1.9959,-0.5853
5220.0,3.0969,-11.0755,-4.2836,0.5432,-1.9959,-0.5853
5225.0,3.0969,-11.0755,-4.2836,0.5432,-1.9959,-0.5853
5230.0,3.0969,-11.0755,-4.2836,0.9818,-0.641,0.1918
5235.0,2.0145,-6.957,-4.5253,0.9818,-0.641,0.1918
5240.0,2.0145,-6.957,-4.5253,0.9818,-0.641,0.1918
5246.0,2.0145,-6.957,-4.5253,0.9818,-0.641,0.1918
5250.0,2.0145,-6.957,-4.5253,0.9818,-0.641,0.1918
5255.0,2.0145,-6.957,-4.5253,0.9818,-0.641,0.1918
5260.0,2.0145,-6.957,-4.5253,0.9818,-0.641,0.1918
5265.0,0.3766,-5.3745,-4.0419,0.8682,-0.4834,1.0574
5270.0,0.3766,-5.3745,-4.0419,0.8682,-0.4834,1.0574
5275.0,0.3766,-5.3745,-4.0419,0.8682,-0.4834,1.0574
5281.0,0.3766,-5.3745,-4.0419,0.8682,-0.4834,1.0574
5285.0,0.3766,-5.3745,-4.0419,0.8682,-0.4834,1.0574
5290.0,-0.337,-3.5488,-1.8856,0.8682,-0.4834,1.0574
5295.0,-0.337,-3.5488,-1.8856,0.2915,-0.6691,1.6646
5300.0,-0.337,-3.5488,-1.8856,0.2915,-0.6691,1.6646
5306.0,-0.337,-3.5488,-1.8856,0.2915,-0.6691,1.6646
5310.0,-0.337,-3.5488,-1.8856,0.2915,-0.6691,1.6646
5315.0,-0.7489,-3.3057,0.2564,0.2915,-0.6691,1.6646
5321.0,-0.7489,-3.3057,0.2564,0.2915,-0.6691,1.6646
5325.0,-0.7489,-3.3057,0.2564,-0.133,-0.4046,2.2394
5330.0,-0.7489,-3.3057,0.2564,-0.133,-0.4046,2.2394
5336.0,-0.7489,-3.3057,0.2564,-0.133,-0.4046,2.2394
5340.0,-0.7489,-3.3057,0.2564,-0.133,-0.4046,2.2394
5345.0,-0.7489,-3.3057,0.2564,-0.133,-0.4046,2.2394
5351.0,-0.495,-4.6356,0.4697,-0.133,-0.4046,2.2394
5356.0,-0.495,-4.6356,0.4697,-0.4482,0.662,2.6365
5360.0,-0.495,-4.6356,0.4697,-0.4482,0.662,2.6365
5365.0,-0.495,-4.6356,0.4697,-0.4482,0.662,2.6365
5370.0,-0.495,-4.6356,0.4697,-0.4482,0.662,2.6365
5375.0,0.4389,-8.8161,-0.3502,-0.4482,0.662,2.6365
5381.0,0.4389,-8.8161,-0.3502,-0.4482,0.662,2.6365
5385.0,0.4389,-8.8161,-0.3502,-0.5551,2.0017,2.8142
5390.0,0.4389,-8.8161,-0.3502,-0.5551,2.0017,2.8142
5395.0,0.4389,-8.8161,-0.3502,-0.5551,2.0017,2.8142
5400.0,2.0097,-10.3987,-2.0657,-0.5551,2.0017,2.8142
5405.0,2.0097,-10.3987,-2.0657,-0.5551,2.0017,2.8142
5410.0,2.0097,-10.3987,-2.0657,-0.5551,2.0017,2.8142
5415.0,2.0097,-10.3987,-2.0657,-0.5551,2.0017,2.8142
5421.0,2.0097,-10.3987,-2.0657,-0.5649,3.2527,1.9761
5425.0,2.0097,-10.3987,-2.0657,-0.5649,3.2527,1.9761
5431.0,2.1486,-9.8553,-1.5302,-0.5649,3.2527,1.9761
5435.0,2.1486,-9.8553,-1.5302,-0.5649,3.2527,1.9761
5440.0,2.1486,-9.8553,-1.5302,-0.5649,3.2527,1.9761
5446.0,2.1486,-9.8553,-1.5302,-0.5649,3.2527,1.9761
5450.0,2.1486,-9.8553,-1.5302,-0.2326,3.8801,1.1447
5455.0,2.503,-9.2499,-1.8051,-0.2326,3.8801,1.1447
5461.0,2.503,-9.2499,-1.8051,-0.2326,3.8801,1.1447
5465.0,2.503,-9.2499,-1.8051,-0.2326,3.8801,1.1447
5470.0,2.503,-9.2499,-1.8051,-0.2326,3.8801,1.1447
5476.0,2.503,-9.2499,-1.8051,-0.2326,3.8801,1.1447
5480.0,2.503,-9.2499,-1.8051,-0.2326,3.8801,1.1447
5485.0,6.0901,-7.7436,-7.2644,-0.3089,2.6864,0.2327
5490.0,6.0901,-7.7436,-7.2644,-0.3089,2.6864,0.2327
5496.0,6.0901,-7.7436,-7.2644,-0.3089,2.6864,0.2327
5500.0,6.0901,-7.7436,-7.2644,-0.3089,2.6864,0.2327
5505.0,6.0901,-7.7436,-7.2644,-0.3089,2.6864,0.2327
5510.0,7.6945,-9.717,-11.1268,-0.3089,2.6864,0.2327
5515.0,7.6945,-9.717,-11.1268,-0.9552,0.3908,-0.8125
5520.0,7.6945,-9.717,-11.1268,-0.9552,0.3908,-0.8125
5525.0,7.6945,-9.717,-11.1268,-0.9552,0.3908,-0.8125
5531.0,7.6945,-9.717,-11.1268,-0.9552,0.3908,-0.8125
5535.0,7.4503,-8.0915,-5.8285,-0.9552,0.3908,-0.8125
5540.0,7.4503,-8.0915,-5.8285,-0.9552,0.3908,-0.8125
5545.0,7.4503,-8.0915,-5.8285,-1.1526,-2.9556,-0.8265
5550.0,7.4503,-8.0915,-5.8285,-1.1526,-2.9556,-0.8265
5555.0,7.4503,-8.0915,-5.8285,-1.1526,-2.9556,-0.8265
5560.0,6.2578,-4.4831,-3.3642,-1.1526,-2.9556,-0.8265
5565.0,6.2578,-4.4831,-3.3642,-1.1526,-2.9556,-0.8265
5570.0,6.2578,-4.4831,-3.3642,-1.1526,-2.9556,-0.8265
5575.0,6.2578,-4.4831,-3.3642,-1.1526,-2.9556,-0.8265
5580.0,6.2578,-4.4831,-3.3642,-0.6761,-2.6941,-0.5309
5585.0,6.2578,-4.4831,-3.3642,-0.6761,-2.6941,-0.5309
5590.0,1.8756,-1.8327,-3.4069,-0.6761,-2.6941,-0.5309
5595.0,1.8756,-1.8327,-3.4069,-0.6761,-2.6941,-0.5309
5600.0,1.8756,-1.8327,-3.4069,-0.6761,-2.6941,-0.5309
5606.0,1.8756,-1.8327,-3.4069,-0.7256,-4.4919,0.4294
5610.0,1.8756,-1.8327,-3.4069,-0.7256,-4.4919,0.4294
5615.0,2.2492,-7.4099,1.7919,-0.7256,-4.4919,0.4294
5620.0,2.2492,-7.4099,1.7919,-0.7256,-4.4919,0.4294
5625.0,2.2492,-7.4099,1.7919,-0.7256,-4.4919,0.4294
5630.0,2.2492,-7.4099,1.7919,-0.7256,-4.4919,0.4294
5635.0,2.2492,-7.4099,1.7919,-0.7256,-4.4919,0.4294
5640.0,2.2492,-7.4099,1.7919,-0.4623,-4.0625,0.6432
5646.0,3.5231,-16.4001,7.8389,-0.4623,-4.0625,0.6432
5650.0,3.5231,-16.4001,7.8389,-0.4623,-4.0625,0.6432
5656.0,3.5231,-16.4001,7.8389,-0.4623,-4.0625,0.6432
5660.0,3.5231,-16.4001,7.8389,-0.4623,-4.0625,0.6432
5665.0,3.5231,-16.4001,7.8389,-0.4623,-4.0625,0.6432
5670.0,3.3651,-19.8608,2.7586,-0.5148,4.9204,1.2254
5675.0,3.3651,-19.8608,2.7586,-0.5148,4.9204,1.2254
5680.0,3.3651,-19.8608,2.7586,-0.5148,4.9204,1.2254
5685.0,3.3651,-19.8608,2.7586,-0.5148,4.9204,1.2254
5690.0,3.3651,-19.8608,2.7586,-0.5148,4.9204,1.2254
5695.0,3.3651,-19.8608,2.7586,-0.5148,4.9204,1.2254
5701.0,-2.7077,-13.8737,-6.7289,0.5505,0.1843,-0.0947
5706.0,-2.7077,-13.8737,-6.7289,0.5505,0.1843,-0.0947
5710.0,-2.7077,-13.8737,-6.7289,0.5505,0.1843,-0.0947
5715.0,-2.7077,-13.8737,-6.7289,0.5505,0.1843,-0.0947
5722.0,-2.7077,-13.8737,-6.7289,0.5505,0.1843,-0.0947
5725.0,-2.7077,-13.8737,-6.7289,0.5505,0.1843,-0.0947
5730.0,0.003,-8.0677,2.3606,0.6104,-3.1981,-0.1387
5735.0,0.003,-8.0677,2.3606,0.6104,-3.1981,-0.1387
5740.0,0.003,-8.0677,2.3606,0.6104,-3.1981,-0.1387
5745.0,0.003,-8.0677,2.3606,0.6104,-3.1981,-0.1387
5750.0,0.003,-8.0677,2.3606,0.6104,-3.1981,-0.1387
5762.0,-0.155,-10.5274,3.2088,-0.681,-1.7088,2.1649
5763.0,-0.155,-10.5274,3.2088,-0.681,-1.7088,2.1649
5766.0,-0.155,-10.5274,3.2088,-0.681,-1.7088,2.1649
5770.0,-0.155,-10.5274,3.2088,-0.681,-1.7088,2.1649
5775.0,-0.155,-10.5274,3.2088,-0.681,-1.7088,2.1649
5780.0,-0.155,-10.5274,3.2088,-0.681,-1.7088,2.1649
5785.0,1.8421,-23.6504,-17.5814,-0.681,-1.7088,2.1649
5791.0,1.8421,-23.6504,-17.5814,0.5597,-4.495,1.3817
5795.0,1.8421,-23.6504,-17.5814,0.5597,-4.495,1.3817
5800.0,1.8421,-23.6504,-17.5814,0.5597,-4.495,1.3817
5805.0,1.8421,-23.6504,-17.5814,0.5597,-4.495,1.3817
5810.0,3.9015,-10.842,1.4886,0.5597,-4.495,1.3817
5815.0,3.9015,-10.842,1.4886,0.5597,-4.495,1.3817
5820.0,3.9015,-10.842,1.4886,0.5597,-4.495,1.3817
5825.0,3.9015,-10.842,1.4886,0.2164,-0.5371,-0.3146
5830.0,3.9015,-10.842,1.4886,0.2164,-0.5371,-0.3146
5836.0,3.9015,-10.842,1.4886,0.2164,-0.5371,-0.3146
5840.0,2.1534,-5.2648,2.1994,0.2164,-0.5371,-0.3146
5845.0,2.1534,-5.2648,2.1994,0.2164,-0.5371,-0.3146
5850.0,2.1534,-5.2648,2.1994,0.2164,-0.5371,-0.3146
5855.0,2.1534,-5.2648,2.1994,-0.0744,1.2576,-1.0709
5861.0,2.1534,-5.2648,2.1994,-0.0744,1.2576,-1.0709
5865.0,1.6458,-3.5583,1.0621,-0.0744,1.2576,-1.0709
5870.0,1.6458,-3.5583,1.0621,-0.0744,1.2576,-1.0709
5876.0,1.6458,-3.5583,1.0621,-0.0744,1.2576,-1.0709
5881.0,1.6458,-3.5583,1.0621,-0.0744,1.2576,-1.0709
5885.0,1.6458,-3.5583,1.0621,-0.3774,1.6406,-0.898
5890.0,1.6458,-3.5583,1.0621,-0.3774,1.6406,-0.898
5895.0,2.4791,-7.3336,1.0289,-0.3774,1.6406,-0.898
5900.0,2.4791,-7.3336,1.0289,-0.3774,1.6406,-0.898
5905.0,2.4791,-7.3336,1.0289,-0.3774,1.6406,-0.898
5910.0,2.4791,-7.3336,1.0289,-0.3774,1.6406,-0.898
5915.0,2.4791,-7.3336,1.0289,-0.7133,1.1764,0.4789
5920.0,3.5375,-13.7307,1.3938,-0.7133,1.1764,0.4789
5926.0,3.5375,-13.7307,1.3938,-0.7133,1.1764,0.4789
5930.0,3.5375,-13.7307,1.3938,-0.7133,1.1764,0.4789
5935.0,3.5375,-13.7307,1.3938,-0.7133,1.1764,0.4789
5941.0,3.5375,-13.7307,1.3938,-0.7133,1.1764,0.4789
5946.0,2.6994,-13.478,1.3322,-0.3517,0.4366,1.8973
5950.0,2.6994,-13.478,1.3322,-0.3517,0.4366,1.8973
5955.0,2.6994,-13.478,1.3322,-0.3517,0.4366,1.8973
5960.0,2.6994,-13.478,1.3322,-0.3517,0.4366,1.8973
5965.0,2.6994,-13.478,1.3322,-0.3517,0.4366,1.8973
5971.0,1.8038,-7.7579,-0.0706,-0.3517,0.4366,1.8973
5975.0,1.8038,-7.7579,-0.0706,-0.3517,0.4366,1.8973
5980.0,1.8038,-7.7579,-0.0706,-0.2265,0.0756,2.4923
5985.0,1.8038,-7.7579,-0.0706,-0.2265,0.0756,2.4923
5991.0,1.8038,-7.7579,-0.0706,-0.2265,0.0756,2.4923
5995.0,1.8038,-7.7579,-0.0706,-0.2265,0.0756,2.4923
6000.0,2.2683,-5.8607,-11.2121,-0.2265,0.0756,2.4923
6005.0,2.2683,-5.8607,-11.2121,-0.2265,0.0756,2.4923
6011.0,2.2683,-5.8607,-11.2121,-0.3389,-3.1767,1.4856
6016.0,2.2683,-5.8607,-11.2121,-0.3389,-3.1767,1.4856
6021.0,2.2683,-5.8607,-11.2121,-0.3389,-3.1767,1.4856
6025.0,1.2913,-9.7122,0.8346,-0.3389,-3.1767,1.4856
6030.0,1.2913,-9.7122,0.8346,-0.3389,-3.1767,1.4856
6035.0,1.2913,-9.7122,0.8346,-0.3389,-3.1767,1.4856
6041.0,1.2913,-9.7122,0.8346,-0.1746,-0.9165,0.5314
6045.0,1.2913,-9.7122,0.8346,-0.1746,-0.9165,0.5314
6050.0,-0.8638,-9.1641,-1.2838,-0.1746,-0.9165,0.5314
6056.0,-0.8638,-9.1641,-1.2838,-0.1746,-0.9165,0.5314
6060.0,-0.8638,-9.1641,-1.2838,-0.1746,-0.9165,0.5314
6065.0,-0.8638,-9.1641,-1.2838,-0.1746,-0.9165,0.5314
6071.0,-0.8638,-9.1641,-1.2838,0.1321,-0.7088,0.2467
6075.0,-0.8638,-9.1641,-1.2838,0.1321,-0.7088,0.2467
6080.0,-2.904,-6.1657,-6.2408,0.1321,-0.7088,0.2467
6085.0,-2.904,-6.1657,-6.2408,0.1321,-0.7088,0.2467
6091.0,-2.904,-6.1657,-6.2408,0.1321,-0.7088,0.2467
6096.0,-2.904,-6.1657,-6.2408,0.1321,-0.7088,0.2467
6100.0,-2.904,-6.1657,-6.2408,0.2414,-1.4547,-0.1864
6105.0,-0.5286,-7.8341,-1.5302,0.2414,-1.4547,-0.1864
6110.0,-0.5286,-7.8341,-1.5302,0.2414,-1.4547,-0.1864
6115.0,-0.5286,-7.8341,-1.5302,0.2414,-1.4547,-0.1864
6120.0,-0.5286,-7.8341,-1.5302,0.2414,-1.4547,-0.1864
6125.0,-0.5286,-7.8341,-1.5302,0.2414,-1.4547,-0.1864
6130.0,-1.9653,-9.8648,-0.9662,0.1333,-0.305,-0.953
6136.0,-1.9653,-9.8648,-0.9662,0.1333,-0.305,-0.953
6140.0,-1.9653,-9.8648,-0.9662,0.1333,-0.305,-0.953
6145.0,-1.9653,-9.8648,-0.9662,0.1333,-0.305,-0.953
6150.0,-1.9653,-9.8648,-0.9662,0.1333,-0.305,-0.953
6155.0,-1.9653,-9.8648,-0.9662,0.1333,-0.305,-0.953
6160.0,-1.3188,-7.877,0.3891,-0.0622,0.9998,-1.1528
6165.0,-1.3188,-7.877,0.3891,-0.0622,0.9998,-1.1528
6170.0,-1.3188,-7.877,0.3891,-0.0622,0.9998,-1.1528
6175.0,-1.3188,-7.877,0.3891,-0.0622,0.9998,-1.1528
6180.0,-1.3188,-7.877,0.3891,-0.0622,0.9998,-1.1528
6185.0,-1.0793,-9.8314,1.5834,-0.0622,0.9998,-1.1528
6191.0,-1.0793,-9.8314,1.5834,-0.2442,2.2692,-1.1637
6195.0,-1.0793,-9.8314,1.5834,-0.2442,2.2692,-1.1637
6200.0,-1.0793,-9.8314,1.5834,-0.2442,2.2692,-1.1637
6206.0,-1.0793,-9.8314,1.5834,-0.2442,2.2692,-1.1637
6210.0,-1.0793,-9.8314,1.5834,-0.2442,2.2692,-1.1637
6215.0,0.2138,-9.2308,-2.6249,-0.2442,2.2692,-1.1637
6220.0,0.2138,-9.2308,-2.6249,-0.0237,1.9186,-0.7734
6226.0,0.2138,-9.2308,-2.6249,-0.0237,1.9186,-0.7734
6230.0,0.2138,-9.2308,-2.6249,-0.0237,1.9186,-0.7734
6235.0,0.2138,-9.2308,-2.6249,-0.0237,1.9186,-0.7734
6240.0,2.6659,-7.5577,-3.6059,-0.0237,1.9186,-0.7734
6245.0,2.6659,-7.5577,-3.6059,-0.0237,1.9186,-0.7734
6250.0,2.6659,-7.5577,-3.6059,0.0014,0.6192,-1.2358
6255.0,2.6659,-7.5577,-3.6059,0.0014,0.6192,-1.2358
6260.0,2.6659,-7.5577,-3.6059,0.0014,0.6192,-1.2358
6265.0,2.6659,-7.5577,-3.6059,0.0014,0.6192,-1.2358
6271.0,3.9398,-9.2117,-4.8807,0.0014,0.6192,-1.2358
6275.0,3.9398,-9.2117,-4.8807,0.0014,0.6192,-1.2358
6280.0,3.9398,-9.2117,-4.8807,0.3685,0.2209,-2.3739
6285.0,3.9398,-9.2117,-4.8807,0.3685,0.2209,-2.3739
6290.0,3.9398,-9.2117,-4.8807,0.3685,0.2209,-2.3739
6295.0,5.2233,-11.9717,-8.1601,0.3685,0.2209,-2.3739
6301.0,5.2233,-11.9717,-8.1601,0.3685,0.2209,-2.3739
6305.0,5.2233,-11.9717,-8.1601,0.3685,0.2209,-2.3739
6310.0,5.2233,-11.9717,-8.1601,0.3685,0.2209,-2.3739
6315.0,5.2233,-11.9717,-8.1601,0.6892,0.7249,-3.9432
6320.0,5.2233,-11.9717,-8.1601,0.6892,0.7249,-3.9432
6325.0,2.9676,-12.5914,-1.8098,0.6892,0.7249,-3.9432
6331.0,2.9676,-12.5914,-1.8098,0.6892,0.7249,-3.9432
6335.0,2.9676,-12.5914,-1.8098,0.6892,0.7249,-3.9432
6340.0,2.9676,-12.5914,-1.8098,0.6892,0.7249,-3.9432
6345.0,2.9676,-12.5914,-1.8098,1.0563,1.775,-4.383
6350.0,0.913,-12.6772,1.4744,1.0563,1.775,-4.383
6355.0,0.913,-12.6772,1.4744,1.0563,1.775,-4.383
6360.0,0.913,-12.6772,1.4744,1.0563,1.775,-4.383
6365.0,0.913,-12.6772,1.4744,1.0563,1.775,-4.383
6370.0,0.913,-12.6772,1.4744,1.0563,1.775,-4.383
6376.0,0.913,-12.6772,1.4744,0.9366,1.7524,-3.5608
6380.0,2.7808,-11.3282,-1.9141,0.9366,1.7524,-3.5608
6385.0,2.7808,-11.3282,-1.9141,0.9366,1.7524,-3.5608
6390.0,2.7808,-11.3282,-1.9141,0.9366,1.7524,-3.5608
6395.0,2.7808,-11.3282,-1.9141,0.9366,1.7524,-3.5608
6400.0,2.7808,-11.3282,-1.9141,0.9366,1.7524,-3.5608
6405.0,5.4867,-15.0272,-6.7526,-0.0573,0.0285,-2.6017
6411.0,5.4867,-15.0272,-6.7526,-0.0573,0.0285,-2.6017
6415.0,5.4867,-15.0272,-6.7526,-0.0573,0.0285,-2.6017
6420.0,5.4867,-15.0272,-6.7526,-0.0573,0.0285,-2.6017
6425.0,5.4867,-15.0272,-6.7526,-0.0573,0.0285,-2.6017
6430.0,5.4867,-15.0272,-6.7526,-0.0573,0.0285,-2.6017
6436.0,5.3957,-16.1045,-5.184,-0.516,-2.8114,-1.5504
6440.0,5.3957,-16.1045,-5.184,-0.516,-2.8114,-1.5504
6445.0,5.3957,-16.1045,-5.184,-0.516,-2.8114,-1.5504
6450.0,5.3957,-16.1045,-5.184,-0.516,-2.8114,-1.5504
6455.0,5.3957,-16.1045,-5.184,-0.516,-2.8114,-1.5504
6460.0,4.548,-10.575,-2.2837,-0.516,-2.8114,-1.5504
6465.0,4.548,-10.575,-2.2837,-0.516,-2.8114,-1.5504
6471.0,4.548,-10.575,-2.2837,-0.3731,-1.4204,-1.4472
6475.0,4.548,-10.575,-2.2837,-0.3731,-1.4204,-1.4472
6480.0,4.548,-10.575,-2.2837,-0.3731,-1.4204,-1.4472
6485.0,3.0634,-7.6101,-2.2031,-0.3731,-1.4204,-1.4472
6490.0,3.0634,-7.6101,-2.2031,-0.3731,-1.4204,-1.4472
6495.0,3.0634,-7.6101,-2.2031,-0.3731,-1.4204,-1.4472
6500.0,3.0634,-7.6101,-2.2031,0.0173,0.5881,-0.8766
6513.0,1.617,-7.7054,-2.7007,0.0173,0.5881,-0.8766
6514.0,1.617,-7.7054,-2.7007,0.0173,0.5881,-0.8766
6515.0,1.617,-7.7054,-2.7007,0.0173,0.5881,-0.8766
6520.0,1.617,-7.7054,-2.7007,0.0173,0.5881,-0.8766
6526.0,1.617,-7.7054,-2.7007,0.0173,0.5881,-0.8766
6530.0,1.617,-7.7054,-2.7007,0.0173,0.5881,-0.8766
6535.0,1.617,-7.7054,-2.7007,0.7815,1.4433,-0.1491
6540.0,1.617,-7.7054,-2.7007,0.7815,1.4433,-0.1491
6545.0,0.2569,-5.4793,-3.6201,0.7815,1.4433,-0.1491
6550.0,0.2569,-5.4793,-3.6201,0.7815,1.4433,-0.1491
6555.0,0.2569,-5.4793,-3.6201,0.7815,1.4433,-0.1491
6560.0,0.2569,-5.4793,-3.6201,0.7815,1.4433,-0.1491
6565.0,0.2569,-5.4793,-3.6201,0.7118,1.4048,1.6407
6570.0,-0.7297,-4.6976,-3.4495,0.7118,1.4048,1.6407
6576.0,-0.7297,-4.6976,-3.4495,0.7118,1.4048,1.6407
6581.0,-0.7297,-4.6976,-3.4495,0.7118,1.4048,1.6407
6585.0,-0.7297,-4.6976,-3.4495,0.7118,1.4048,1.6407
6590.0,-0.7297,-4.6976,-3.4495,0.7118,1.4048,1.6407
6595.0,0.3814,-4.7452,-3.042,0.7631,1.4372,2.923
6600.0,0.3814,-4.7452,-3.042,0.7631,1.4372,2.923
6605.0,0.3814,-4.7452,-3.042,0.7631,1.4372,2.923
6610.0,0.3814,-4.7452,-3.042,0.7631,1.4372,2.923
6615.0,0.3814,-4.7452,-3.042,0.7631,1.4372,2.923
6620.0,3.9733,-3.9301,-2.6249,0.7631,1.4372,2.923
6626.0,3.9733,-3.9301,-2.6249,0.6337,1.1477,3.8857
6630.0,3.9733,-3.9301,-2.6249,0.6337,1.1477,3.8857
6635.0,3.9733,-3.9301,-2.6249,0.6337,1.1477,3.8857
6640.0,3.9733,-3.9301,-2.6249,0.6337,1.1477,3.8857
6645.0,3.9733,-3.9301,-2.6249,0.6337,1.1477,3.8857
6650.0,6.617,-4.8453,-4.3168,0.6337,1.1477,3.8857
6655.0,6.617,-4.8453,-4.3168,-0.5637,1.2485,3.6646
6660.0,6.617,-4.8453,-4.3168,-0.5637,1.2485,3.6646
6665.0,6.617,-4.8453,-4.3168,-0.5637,1.2485,3.6646
6670.0,6.617,-4.8453,-4.3168,-0.5637,1.2485,3.6646
6675.0,6.617,-4.8453,-4.3168,-0.5637,1.2485,3.6646
6680.0,3.6668,-9.9744,-7.8853,-0.5637,1.2485,3.6646
6685.0,3.6668,-9.9744,-7.8853,-0.3431,-0.0582,2.3762
6691.0,3.6668,-9.9744,-7.8853,-0.3431,-0.0582,2.3762
6695.0,3.6668,-9.9744,-7.8853,-0.3431,-0.0582,2.3762
6700.0,3.6668,-9.9744,-7.8853,-0.3431,-0.0582,2.3762
6705.0,2.5126,-8.2107,-5.6058,-0.3431,-0.0582,2.3762
6710.0,2.5126,-8.2107,-5.6058,-0.3431,-0.0582,2.3762
6715.0,2.5126,-8.2107,-5.6058,-0.3431,-0.0582,2.3762
6720.0,2.5126,-8.2107,-5.6058,0.1284,-0.5102,1.0372
6725.0,2.5126,-8.2107,-5.6058,0.1284,-0.5102,1.0372
6730.0,2.5126,-8.2107,-5.6058,0.1284,-0.5102,1.0372
6735.0,2.7856,-5.4984,0.0621,0.1284,-0.5102,1.0372
6740.0,2.7856,-5.4984,0.0621,0.1284,-0.5102,1.0372
6745.0,2.7856,-5.4984,0.0621,0.1284,-0.5102,1.0372
6751.0,2.7856,-5.4984,0.0621,0.0472,1.257,0.3469
6755.0,2.7856,-5.4984,0.0621,0.0472,1.257,0.3469
6760.0,2.7856,-5.4984,0.0621,0.0472,1.257,0.3469
6765.0,4.2032,-3.9635,1.7682,0.0472,1.257,0.3469
6770.0,4.2032,-3.9635,1.7682,0.0472,1.257,0.3469
6775.0,4.2032,-3.9635,1.7682,0.0472,1.257,0.3469
6780.0,4.2032,-3.9635,1.7682,-0.7445,0.3902,0.6151
6785.0,4.2032,-3.9635,1.7682,-0.7445,0.3902,0.6151
6790.0,5.1131,-3.7585,-0.4307,-0.7445,0.3902,0.6151
6795.0,5.1131,-3.7585,-0.4307,-0.7445,0.3902,0.6151
6800.0,5.1131,-3.7585,-0.4307,-0.7445,0.3902,0.6151
6805.0,5.1131,-3.7585,-0.4307,-0.7445,0.3902,0.6151
6810.0,5.1131,-3.7585,-0.4307,-1.3248,-0.0857,0.2748
6815.0,5.8651,-3.7966,-0.2933,-1.3248,-0.0857,0.2748
6820.0,5.8651,-3.7966,-0.2933,-1.3248,-0.0857,0.2748
6825.0,5.8651,-3.7966,-0.2933,-1.3248,-0.0857,0.2748
6830.0,5.8651,-3.7966,-0.2933,-1.3248,-0.0857,0.2748
6835.0,5.8651,-3.7966,-0.2933,-1.3248,-0.0857,0.2748
6840.0,5.8651,-3.7966,-0.2933,-1.3248,-0.0857,0.2748
6845.0,3.4609,-10.8658,-19.9177,-0.2295,1.6901,-1.595
6850.0,3.4609,-10.8658,-19.9177,-0.2295,1.6901,-1.595
6855.0,3.4609,-10.8658,-19.9177,-0.2295,1.6901,-1.595
6861.0,3.4609,-10.8658,-19.9177,-0.2295,1.6901,-1.595
6865.0,3.4609,-10.8658,-19.9177,-0.2295,1.6901,-1.595
6871.0,6.708,-15.6422,-12.0604,-0.144,-4.5347,-0.3641
6875.0,6.708,-15.6422,-12.0604,-0.144,-4.5347,-0.3641
6881.0,6.708,-15.6422,-12.0604,-0.144,-4.5347,-0.3641
6885.0,6.708,-15.6422,-12.0604,-0.144,-4.5347,-0.3641
6891.0,6.708,-15.6422,-12.0604,-0.144,-4.5347,-0.3641
6896.0,7.7185,-13.3207,8.2844,-0.144,-4.5347,-0.3641
6901.0,7.7185,-13.3207,8.2844,-0.144,-4.5347,-0.3641
6906.0,7.7185,-13.3207,8.2844,-0.7359,-5.7943,2.4165
6910.0,7.7185,-13.3207,8.2844,-0.7359,-5.7943,2.4165
6915.0,7.7185,-13.3207,8.2844,-0.7359,-5.7943,2.4165
6921.0,7.7185,-13.3207,8.2844,-0.7359,-5.7943,2.4165
6926.0,5.2281,-10.9802,4.7491,-0.7359,-5.7943,2.4165
6930.0,5.2281,-10.9802,4.7491,-0.7359,-5.7943,2.4165
6936.0,5.2281,-10.9802,4.7491,0.06,-3.5884,0.4337
6940.0,5.2281,-10.9802,4.7491,0.06,-3.5884,0.4337
6945.0,5.2281,-10.9802,4.7491,0.06,-3.5884,0.4337
6950.0,2.8287,-7.2621,3.7444,0.06,-3.5884,0.4337
6955.0,2.8287,-7.2621,3.7444,0.06,-3.5884,0.4337
6960.0,2.8287,-7.2621,3.7444,0.06,-3.5884,0.4337
6965.0,2.8287,-7.2621,3.7444,0.06,-3.5884,0.4337
6970.0,2.8287,-7.2621,3.7444,-0.0426,-1.2024,-1.7264
6975.0,3.504,-12.0575,3.4506,-0.0426,-1.2024,-1.7264
6980.0,3.504,-12.0575,3.4506,-0.0426,-1.2024,-1.7264
6985.0,3.504,-12.0575,3.4506,-0.0426,-1.2024,-1.7264
6991.0,3.504,-12.0575,3.4506,-0.0426,-1.2024,-1.7264
6995.0,3.504,-12.0575,3.4506,-0.0426,-1.2024,-1.7264
7000.0,3.504,-12.0575,3.4506,-1.5117,3.5417,-0.832
7005.0,2.1486,-16.9244,4.0192,-1.5117,3.5417,-0.832
7010.0,2.1486,-16.9244,4.0192,-1.5117,3.5417,-0.832
7015.0,2.1486,-16.9244,4.0192,-1.5117,3.5417,-0.832
7020.0,2.1486,-16.9244,4.0192,-1.5117,3.5417,-0.832
7026.0,2.1486,-16.9244,4.0192,-1.5117,3.5417,-0.832
7030.0,-3.201,-14.2073,-15.4962,0.1242,-2.4442,-0.7746
7035.0,-3.201,-14.2073,-15.4962,0.1242,-2.4442,-0.7746
7040.0,-3.201,-14.2073,-15.4962,0.1242,-2.4442,-0.7746
7045.0,-3.201,-14.2073,-15.4962,0.1242,-2.4442,-0.7746
7051.0,-3.201,-14.2073,-15.4962,0.1242,-2.4442,-0.7746
7055.0,2.3545,-13.1825,3.6354,0.1242,-2.4442,-0.7746
7060.0,2.3545,-13.1825,3.6354,0.2243,-2.1254,1.0397
7065.0,2.3545,-13.1825,3.6354,0.2243,-2.1254,1.0397
7070.0,2.3545,-13.1825,3.6354,0.2243,-2.1254,1.0397
7076.0,2.3545,-13.1825,3.6354,0.2243,-2.1254,1.0397
7081.0,2.3545,-13.5781,3.3368,0.2243,-2.1254,1.0397
7085.0,3.5758,-13.5781,3.3368,0.2243,-2.1254,1.0397
7091.0,3.5758,-13.5781,3.3368,0.2622,0.0133,1.1221
7097.0,3.5758,-13.5781,3.3368,0.2622,0.0133,1.1221
7100.0,3.5758,-13.5781,3.3368,0.2622,0.0133,1.1221
7105.0,3.5758,-13.5781,3.3368,0.2622,0.0133,1.1221
7110.0,4.3708,-11.4807,2.2705,0.2622,0.0133,1.1221
7115.0,4.3708,-11.4807,2.2705,0.2622,0.0133,1.1221
7120.0,4.3708,-11.4807,2.2705,0.2622,0.0133,1.1221
7125.0,4.3708,-11.4807,2.2705,0.2445,2.877,1.6059
7130.0,4.3708,-11.4807,2.2705,0.2445,2.877,1.6059
7135.0,5.2664,-6.2611,-7.6009,0.2445,2.877,1.6059
7140.0,5.2664,-6.2611,-7.6009,0.2445,2.877,1.6059
7145.0,5.2664,-6.2611,-7.6009,0.2445,2.877,1.6059
7150.0,5.2664,-6.2611,-7.6009,0.2445,2.877,1.6059
7155.0,5.2664,-6.2611,-7.6009,-0.4849,-0.1077,0.1789
7160.0,5.2664,-6.2611,-7.6009,-0.4849,-0.1077,0.1789
7166.0,5.9177,-6.2229,-3.4732,-0.4849,-0.1077,0.1789
7170.0,5.9177,-6.2229,-3.4732,-0.4849,-0.1077,0.1789
7176.0,5.9177,-6.2229,-3.4732,-0.4849,-0.1077,0.1789
7181.0,5.9177,-6.2229,-3.4732,-0.4849,-0.1077,0.1789
7186.0,5.9177,-6.2229,-3.4732,-0.5386,0.031,1.2021
7190.0,3.0969,-8.3537,-1.715,-0.5386,0.031,1.2021
7196.0,3.0969,-8.3537,-1.715,-0.5386,0.031,1.2021
7201.0,3.0969,-8.3537,-1.715,-0.5386,0.031,1.2021
7205.0,3.0969,-8.3537,-1.715,-0.5386,0.031,1.2021
7210.0,3.0969,-8.3537,-1.715,-0.5386,0.031,1.2021
7215.0,3.0969,-8.3537,-1.715,-0.5478,-0.4687,0.9193
7220.0,0.2377,-6.4899,-0.8241,-0.5478,-0.4687,0.9193
7225.0,0.2377,-6.4899,-0.8241,-0.5478,-0.4687,0.9193
7230.0,0.2377,-6.4899,-0.8241,-0.5478,-0.4687,0.9193
7235.0,0.2377,-6.4899,-0.8241,-0.5478,-0.4687,0.9193
7240.0,0.2377,-6.4899,-0.8241,-0.5478,-0.4687,0.9193
7246.0,-1.8408,-6.5852,-2.4259,-0.2393,-0.5823,0.7837
7250.0,-1.8408,-6.5852,-2.4259,-0.2393,-0.5823,0.7837
7256.0,-1.8408,-6.5852,-2.4259,-0.2393,-0.5823,0.7837
7261.0,-1.8408,-6.5852,-2.4259,-0.2393,-0.5823,0.7837
7265.0,-1.8408,-6.5852,-2.4259,-0.2393,-0.5823,0.7837
7270.0,-1.5295,-5.6271,-3.5633,-0.2393,-0.5823,0.7837
7275.0,-1.5295,-5.6271,-3.5633,-0.2393,-0.5823,0.7837
7280.0,-1.5295,-5.6271,-3.5633,0.1565,-0.6294,0.2388
7285.0,-1.5295,-5.6271,-3.5633,0.1565,-0.6294,0.2388
7290.0,-1.5295,-5.6271,-3.5633,0.1565,-0.6294,0.2388
7295.0,-1.5295,-5.6271,-3.5633,0.1565,-0.6294,0.2388
7300.0,2.0049,-6.0847,-2.3027,0.1565,-0.6294,0.2388
7306.0,2.0049,-6.0847,-2.3027,0.1565,-0.6294,0.2388
7310.0,2.0049,-6.0847,-2.3027,0.118,0.3517,-0.818
7315.0,2.0049,-6.0847,-2.3027,0.118,0.3517,-0.818
7321.0,2.0049,-6.0847,-2.3027,0.118,0.3517,-0.818
7325.0,1.6458,-5.3983,-2.4733,0.118,0.3517,-0.818
7330.0,1.6458,-5.3983,-2.4733,0.118,0.3517,-0.818
7336.0,1.6458,-5.3983,-2.4733,0.118,0.3517,-0.818
7340.0,1.6458,-5.3983,-2.4733,-0.1452,-0.1901,-1.333
7345.0,1.6458,-5.3983,-2.4733,-0.1452,-0.1901,-1.333
7350.0,2.1342,-8.3918,-3.3642,-0.1452,-0.1901,-1.333
7355.0,2.1342,-8.3918,-3.3642,-0.1452,-0.1901,-1.333
7360.0,2.1342,-8.3918,-3.3642,-0.1452,-0.1901,-1.333
7365.0,2.1342,-8.3918,-3.3642,-0.1452,-0.1901,-1.333
7370.0,2.1342,-8.3918,-3.3642,-0.1098,-0.454,-1.1711
7375.0,2.1342,-8.3918,-3.3642,-0.1098,-0.454,-1.1711
7380.0,1.7607,-9.6932,-5.6295,-0.1098,-0.454,-1.1711
7386.0,1.7607,-9.6932,-5.6295,-0.1098,-0.454,-1.1711
7391.0,1.7607,-9.6932,-5.6295,-0.1098,-0.454,-1.1711
7396.0,1.7607,-9.6932,-5.6295,-0.1098,-0.454,-1.1711
7400.0,1.7607,-9.6932,-5.6295,0.0344,-1.3881,-1.7129
7405.0,3.8536,-6.1514,-4.331,0.0344,-1.3881,-1.7129
7410.0,3.8536,-6.1514,-4.331,0.0344,-1.3881,-1.7129
7416.0,3.8536,-6.1514,-4.331,0.0344,-1.3881,-1.7129
7421.0,3.8536,-6.1514,-4.331,0.0344,-1.3881,-1.7129
7426.0,3.8536,-6.1514,-4.331,0.0344,-1.3881,-1.7129
7430.0,3.8536,-6.1514,-4.331,-0.0768,-1.4644,-2.5895
7435.0,5.0078,-6.3469,-5.0561,-0.0768,-1.4644,-2.5895
7440.0,5.0078,-6.3469,-5.0561,-0.0768,-1.4644,-2.5895
7446.0,5.0078,-6.3469,-5.0561,-0.0768,-1.4644,-2.5895
7450.0,5.0078,-6.3469,-5.0561,-0.0768,-1.4644,-2.5895
7456.0,5.0078,-6.3469,-5.0561,-0.0768,-1.4644,-2.5895
7460.0,6.3631,-11.8049,-2.9472,0.173,-0.2879,-3.9175
7465.0,6.3631,-11.8049,-2.9472,0.173,-0.2879,-3.9175
7471.0,6.3631,-11.8049,-2.9472,0.173,-0.2879,-3.9175
7475.0,6.3631,-11.8049,-2.9472,0.173,-0.2879,-3.9175
7480.0,6.3631,-11.8049,-2.9472,0.173,-0.2879,-3.9175
7485.0,6.7798,-15.5087,-5.7669,0.173,-0.2879,-3.9175
7490.0,6.7798,-15.5087,-5.7669,0.1486,0.5233,-3.708
7495.0,6.7798,-15.5087,-5.7669,0.1486,0.5233,-3.708
7500.0,6.7798,-15.5087,-5.7669,0.1486,0.5233,-3.708
7505.0,6.7798,-15.5087,-5.7669,0.1486,0.5233,-3.708
7511.0,6.7798,-15.5087,-5.7669,0.1486,0.5233,-3.708
7515.0,3.2837,-15.6279,-3.9756,0.1486,0.5233,-3.708
7521.0,3.2837,-15.6279,-3.9756,0.1486,0.5233,-3.708
7526.0,3.2837,-15.6279,-3.9756,-0.0854,-0.7198,-2.5046
7531.0,3.2837,-15.6279,-3.9756,-0.0854,-0.7198,-2.5046
7536.0,3.2837,-15.6279,-3.9756,-0.0854,-0.7198,-2.5046
7540.0,0.1276,-13.0681,-1.824,-0.0854,-0.7198,-2.5046
7545.0,0.1276,-13.0681,-1.824,-0.0854,-0.7198,-2.5046
7551.0,0.1276,-13.0681,-1.824,-0.0854,-0.7198,-2.5046
7556.0,0.1276,-13.0681,-1.824,-0.0854,-0.7198,-2.5046
7561.0,0.1276,-13.0681,-1.824,0.2604,-1.5231,-1.1546
7566.0,0.1276,-13.0681,-1.824,0.2604,-1.5231,-1.1546
7570.0,1.9187,-13.6878,-5.6911,0.2604,-1.5231,-1.1546
7575.0,1.9187,-13.6878,-5.6911,0.2604,-1.5231,-1.1546
7581.0,1.9187,-13.6878,-5.6911,0.2604,-1.5231,-1.1546
7585.0,1.9187,-13.6878,-5.6911,0.2604,-1.5231,-1.1546
7590.0,1.9187,-13.6878,-5.6911,0.2604,-1.5231,-1.1546
7596.0,1.9187,-11.7095,-8.7193,0.9916,-1.9885,0.3701
7600.0,6.5403,-11.7095,-8.7193,0.9916,-1.9885,0.3701
7606.0,6.5403,-11.7095,-8.7193,0.9916,-1.9885,0.3701
7611.0,6.5403,-11.7095,-8.7193,0.9916,-1.9885,0.3701
7615.0,6.5403,-11.7095,-8.7193,0.9916,-1.9885,0.3701
7621.0,6.5403,-11.7095,-8.7193,1.1675,0.202,0.5314
7625.0,5.8172,-7.5243,-7.7763,1.1675,0.202,0.5314
7631.0,5.8172,-7.5243,-7.7763,1.1675,0.202,0.5314
7635.0,5.8172,-7.5243,-7.7763,1.1675,0.202,0.5314
7640.0,5.8172,-7.5243,-7.7763,1.1675,0.202,0.5314
7646.0,5.8172,-7.5243,-7.7763,1.1675,0.202,0.5314
7651.0,3.2597,-4.5641,-4.3452,1.1675,0.202,0.5314
7655.0,3.2597,-4.5641,-4.3452,0.8089,-0.3722,1.1472
7660.0,3.2597,-4.5641,-4.3452,0.8089,-0.3722,1.1472
7665.0,3.2597,-4.5641,-4.3452,0.8089,-0.3722,1.1472
7671.0,3.2597,-4.5641,-4.3452,0.8089,-0.3722,1.1472
7676.0,1.004,-2.972,-0.3312,0.8089,-0.3722,1.1472
7680.0,1.004,-2.972,-0.3312,0.8089,-0.3722,1.1472
7685.0,1.004,-2.972,-0.3312,-0.0866,-1.1901,1.9608
7690.0,1.004,-2.972,-0.3312,-0.0866,-1.1901,1.9608
7695.0,1.004,-2.972,-0.3312,-0.0866,-1.1901,1.9608
7700.0,1.004,-2.972,-0.3312,-0.0866,-1.1901,1.9608
7705.0,0.7071,-3.6918,0.3323,-0.0866,-1.1901,1.9608
7710.0,0.7071,-3.6918,0.3323,-0.0866,-1.1901,1.9608
7715.0,0.7071,-3.6918,0.3323,-0.0866,-1.1901,1.9608
7721.0,0.7071,-3.6918,0.3323,-0.9113,0.1654,2.0586
7725.0,0.7071,-3.6918,0.3323,-0.9113,0.1654,2.0586
7730.0,1.4542,-6.7807,-1.1985,-0.9113,0.1654,2.0586
7735.0,1.4542,-6.7807,-1.1985,-0.9113,0.1654,2.0586
7740.0,1.4542,-6.7807,-1.1985,-0.9113,0.1654,2.0586
7746.0,1.4542,-6.7807,-1.1985,-0.9113,0.1654,2.0586
7750.0,1.4542,-6.7807,-1.1985,-0.9339,2.2222,1.6725
7755.0,3.6476,-8.7303,-4.6817,-0.9339,2.2222,1.6725
7760.0,3.6476,-8.7303,-4.6817,-0.9339,2.2222,1.6725
7765.0,3.6476,-8.7303,-4.6817,-0.9339,2.2222,1.6725
7770.0,3.6476,-8.7303,-4.6817,-0.9339,2.2222,1.6725
7775.0,3.6476,-8.7303,-4.6817,-0.9339,2.2222,1.6725
7780.0,6.1093,-7.3956,-5.6721,-0.6645,2.8508,1.452
7785.0,6.1093,-7.3956,-5.6721,-0.6645,2.8508,1.452
7791.0,6.1093,-7.3956,-5.6721,-0.6645,2.8508,1.452
7795.0,6.1093,-7.3956,-5.6721,-0.6645,2.8508,1.452
7800.0,6.1093,-7.3956,-5.6721,-0.6645,2.8508,1.452
7805.0,6.1093,-7.3956,-5.6721,-0.6645,2.8508,1.452
7810.0,3.2597,-7.1811,-2.9472,-0.6645,2.8508,1.452
7815.0,3.2597,-7.1811,-2.9472,-0.3291,1.6205,1.3952
7820.0,3.2597,-7.1811,-2.9472,-0.3291,1.6205,1.3952
7826.0,3.2597,-7.1811,-2.9472,-0.3291,1.6205,1.3952
7830.0,3.2597,-7.1811,-2.9472,-0.3291,1.6205,1.3952
7835.0,1.2339,-5.7939,-3.2078,-0.3291,1.6205,1.3952
7841.0,1.2339,-5.7939,-3.2078,-0.2576,0.0811,1.0317
7845.0,1.2339,-5.7939,-3.2078,-0.2576,0.0811,1.0317
7850.0,1.2339,-5.7939,-3.2078,-0.2576,0.0811,1.0317
7855.0,1.2339,-5.7939,-3.2078,-0.2576,0.0811,1.0317
7860.0,-0.5334,-6.1896,-2.5681,-0.2576,0.0811,1.0317
7865.0,-0.5334,-6.1896,-2.5681,-0.2576,0.0811,1.0317
7871.0,-0.5334,-6.1896,-2.5681,-0.6694,0.7072,0.7947
7875.0,-0.5334,-6.1896,-2.5681,-0.6694,0.7072,0.7947
7880.0,-0.5334,-6.1896,-2.5681,-0.6694,0.7072,0.7947
7885.0,-0.5334,-6.1896,-2.5681,-0.6694,0.7072,0.7947
7890.0,-0.9883,-7.8818,-3.8239,-0.6694,0.7072,0.7947
7895.0,-0.9883,-7.8818,-3.8239,-0.6694,0.7072,0.7947
7900.0,-0.9883,-7.8818,-3.8239,-0.6694,0.7072,0.7947
7905.0,-0.9883,-7.8818,-3.8239,0.0551,1.3053,0.8283
7910.0,-0.9883,-7.8818,-3.8239,0.0551,1.3053,0.8283
7915.0,2.6227,-6.099,-2.9898,0.0551,1.3053,0.8283
7920.0,2.6227,-6.099,-2.9898,0.0551,1.3053,0.8283
7925.0,2.6227,-6.099,-2.9898,0.0551,1.3053,0.8283
7930.0,2.6227,-6.099,-2.9898,0.0551,1.3053,0.8283
7935.0,2.6227,-6.099,-2.9898,0.0551,1.3053,0.8283
7940.0,2.6227,-6.099,-2.9898,0.2305,0.7158,0.5357
7945.0,3.8823,-3.0864,-5.0892,0.2305,0.7158,0.5357
7950.0,3.8823,-3.0864,-5.0892,0.2305,0.7158,0.5357
7955.0,3.8823,-3.0864,-5.0892,0.2305,0.7158,0.5357
7961.0,3.8823,-3.0864,-5.0892,0.2305,0.7158,0.5357
7966.0,3.8823,-3.0864,-5.0892,0.2305,0.7158,0.5357
7970.0,1.6314,-4.383,-4.639,0.2359,0.3077,-0.6494
7975.0,1.6314,-4.383,-4.639,0.2359,0.3077,-0.6494
7980.0,1.6314,-4.383,-4.639,0.2359,0.3077,-0.6494
7985.0,1.6314,-4.383,-4.639,0.2359,0.3077,-0.6494
7991.0,1.6314,-4.383,-4.639,0.2359,0.3077,-0.6494
7996.0,1.6314,-4.383,-4.639,0.2359,0.3077,-0.6494
8000.0,1.5164,-11.1423,-5.5679,0.5243,-2.7918,0.3488
8005.0,1.5164,-11.1423,-5.5679,0.5243,-2.7918,0.3488
8010.0,1.5164,-11.1423,-5.5679,0.5243,-2.7918,0.3488
8015.0,1.5164,-11.1423,-5.5679,0.5243,-2.7918,0.3488
8020.0,1.5164,-11.1423,-5.5679,0.5243,-2.7918,0.3488
8025.0,7.3545,-16.8196,-1.0563,0.5243,-2.7918,0.3488
8030.0,7.3545,-16.8196,-1.0563,0.2977,-3.3624,1.5009
8035.0,7.3545,-16.8196,-1.0563,0.2977,-3.3624,1.5009
8040.0,7.3545,-16.8196,-1.0563,0.2977,-3.3624,1.5009
8045.0,7.3545,-16.8196,-1.0563,0.2977,-3.3624,1.5009
8051.0,7.3545,-16.8196,-1.0563,0.2977,-3.3624,1.5009
8055.0,12.7376,-17.0722,-0.6013,0.2977,-3.3624,1.5009
8061.0,12.7376,-17.0722,-0.6013,-0.4989,2.009,-0.091
8065.0,12.7376,-17.0722,-0.6013,-0.4989,2.009,-0.091
8071.0,12.7376,-17.0722,-0.6013,-0.4989,2.009,-0.091
8075.0,12.7376,-17.0722,-0.6013,-0.4989,2.009,-0.091
8080.0,2.7425,-6.1944,-6.4019,-0.4989,2.009,-0.091
8085.0,2.7425,-6.1944,-6.4019,-0.4989,2.009,-0.091
8090.0,2.7425,-6.1944,-6.4019,-0.4989,2.009,-0.091
8095.0,2.7425,-6.1944,-6.4019,-0.6852,-0.4565,-1.7899
8101.0,2.7425,-6.1944,-6.4019,-0.6852,-0.4565,-1.7899
8105.0,0.5873,-9.3643,4.9149,-0.6852,-0.4565,-1.7899
8110.0,0.5873,-9.3643,4.9149,-0.6852,-0.4565,-1.7899
8115.0,0.5873,-9.3643,4.9149,-0.6852,-0.4565,-1.7899
8120.0,0.5873,-9.3643,4.9149,-0.6852,-0.4565,-1.7899
8125.0,0.5873,-9.3643,4.9149,-0.3065,-0.7149,-0.975
8130.0,0.5873,-9.3643,4.9149,-0.3065,-0.7149,-0.975
8135.0,-7.1089,-33.4986,-28.8698,-0.3065,-0.7149,-0.975
8141.0,-7.1089,-33.4986,-28.8698,-0.3065,-0.7149,-0.975
8145.0,-7.1089,-33.4986,-28.8698,-0.3065,-0.7149,-0.975
8150.0,-7.1089,-33.4986,-28.8698,-0.3065,-0.7149,-0.975
8155.0,-7.1089,-33.4986,-28.8698,0.8975,-2.6715,-0.063
8160.0,0.8268,-11.7715,1.8535,0.8975,-2.6715,-0.063
8165.0,0.8268,-11.7715,1.8535,0.8975,-2.6715,-0.063
8170.0,0.8268,-11.7715,1.8535,0.8975,-2.6715,-0.063
8175.0,0.8268,-11.7715,1.8535,0.8975,-2.6715,-0.063
8180.0,0.8268,-11.7715,1.8535,0.8975,-2.6715,-0.063
8185.0,0.8268,-11.7715,1.8535,0.7796,-1.3514,-0.2261
8190.0,0.7549,-5.5794,4.2894,0.7796,-1.3514,-0.2261
8196.0,0.7549,-5.5794,4.2894,0.7796,-1.3514,-0.2261
8200.0,0.7549,-5.5794,4.2894,0.7796,-1.3514,-0.2261
8205.0,0.7549,-5.5794,4.2894,0.7796,-1.3514,-0.2261
8210.0,0.7549,-5.5794,4.2894,0.7796,-1.3514,-0.2261
8215.0,2.3833,-5.8702,3.9718,0.8462,0.0805,0.0867
8220.0,2.3833,-5.8702,3.9718,0.8462,0.0805,0.0867
8225.0,2.3833,-5.8702,3.9718,0.8462,0.0805,0.0867
8230.0,2.3833,-5.8702,3.9718,0.8462,0.0805,0.0867
8235.0,2.3833,-5.8702,3.9718,0.8462,0.0805,0.0867
8240.0,7.1102,-13.6401,3.2278,0.8462,0.0805,0.0867
8246.0,7.1102,-13.6401,3.2278,0.8462,0.0805,0.0867
8251.0,7.1102,-13.6401,3.2278,-0.3804,3.3663,1.3084
8255.0,7.1102,-13.6401,3.2278,-0.3804,3.3663,1.3084
8260.0,7.1102,-13.6401,3.2278,-0.3804,3.3663,1.3084
8265.0,7.1102,-13.6401,3.2278,-0.3804,3.3663,1.3084
8271.0,7.6754,-16.5717,1.3559,-0.3804,3.3663,1.3084
8275.0,7.6754,-16.5717,1.3559,-0.3804,3.3663,1.3084
8280.0,7.6754,-16.5717,1.3559,-0.4079,3.7506,1.5717
8285.0,7.6754,-16.5717,1.3559,-0.4079,3.7506,1.5717
8290.0,7.6754,-16.5717,1.3559,-0.4079,3.7506,1.5717
8295.0,5.2233,-4.545,-17.0553,-0.4079,3.7506,1.5717
8300.0,5.2233,-4.545,-17.0553,-0.4079,3.7506,1.5717
8306.0,5.2233,-4.545,-17.0553,-0.4079,3.7506,1.5717
8310.0,5.2233,-4.545,-17.0553,-0.2656,1.7567,0.1863
8315.0,5.2233,-4.545,-17.0553,-0.2656,1.7567,0.1863
8320.0,5.2233,-4.545,-17.0553,-0.2656,1.7567,0.1863
8325.0,4.9407,-8.7112,-0.5777,-0.2656,1.7567,0.1863
8330.0,4.9407,-8.7112,-0.5777,-0.2656,1.7567,0.1863
8335.0,4.9407,-8.7112,-0.5777,-0.2656,1.7567,0.1863
8340.0,4.9407,-8.7112,-0.5777,-0.5081,0.2063,1.5284
8345.0,4.9407,-8.7112,-0.5777,-0.5081,0.2063,1.5284
8350.0,2.5844,-7.3241,0.9578,-0.5081,0.2063,1.5284
8355.0,2.5844,-7.3241,0.9578,-0.5081,0.2063,1.5284
8360.0,2.5844,-7.3241,0.9578,-0.5081,0.2063,1.5284
8365.0,2.5844,-7.3241,0.9578,-0.5081,0.2063,1.5284
8370.0,2.5844,-7.3241,0.9578,-0.5081,0.2063,1.5284
8375.0,2.5844,-7.3241,0.9578,-0.4556,0.0579,1.7196
8380.0,1.004,-5.5079,-0.7577,-0.4556,0.0579,1.7196
8385.0,1.004,-5.5079,-0.7577,-0.4556,0.0579,1.7196
8390.0,1.004,-5.5079,-0.7577,-0.4556,0.0579,1.7196
8395.0,1.004,-5.5079,-0.7577,-0.4556,0.0579,1.7196
8400.0,1.004,-5.5079,-0.7577,-0.4556,0.0579,1.7196
8405.0,-0.7297,-7.4623,-4.203,-0.265,-0.305,1.5968
8410.0,-0.7297,-7.4623,-4.203,-0.265,-0.305,1.5968
8415.0,-0.7297,-7.4623,-4.203,-0.265,-0.305,1.5968
8420.0,-0.7297,-7.4623,-4.203,-0.265,-0.305,1.5968
8425.0,-0.7297,-7.4623,-4.203,-0.265,-0.305,1.5968
8430.0,-0.7297,-7.4623,-4.203,-0.265,-0.305,1.5968
8435.0,0.7262,-9.4882,-0.6629,-0.0188,-0.1174,0.9798
8440.0,0.7262,-9.4882,-0.6629,-0.0188,-0.1174,0.9798
8446.0,0.7262,-9.4882,-0.6629,-0.0188,-0.1174,0.9798
8450.0,0.7262,-9.4882,-0.6629,-0.0188,-0.1174,0.9798
8455.0,0.7262,-9.4882,-0.6629,-0.0188,-0.1174,0.9798
8460.0,0.7262,-9.4882,-0.6629,-0.0188,-0.1174,0.9798
8465.0,0.9417,-7.4766,-2.0136,-0.0188,-0.1174,0.9798
8470.0,0.9417,-7.4766,-2.0136,-0.1721,0.8563,-0.2053
8475.0,0.9417,-7.4766,-2.0136,-0.1721,0.8563,-0.2053
8480.0,0.9417,-7.4766,-2.0136,-0.1721,0.8563,-0.2053
8485.0,0.9417,-7.4766,-2.0136,-0.1721,0.8563,-0.2053
8491.0,0.9417,-7.4766,-2.0136,-0.1721,0.8563,-0.2053
8496.0,1.2195,-8.3728,-5.4352,-0.1721,0.8563,-0.2053
8500.0,1.2195,-8.3728,-5.4352,0.0625,-0.3251,-0.7789
8505.0,1.2195,-8.3728,-5.4352,0.0625,-0.3251,-0.7789
8510.0,1.2195,-8.3728,-5.4352,0.0625,-0.3251,-0.7789
8515.0,1.2195,-8.3728,-5.4352,0.0625,-0.3251,-0.7789
8520.0,0.8603,-8.3251,-3.0088,0.0625,-0.3251,-0.7789
8525.0,0.8603,-8.3251,-3.0088,0.0625,-0.3251,-0.7789
8530.0,0.8603,-8.3251,-3.0088,0.3398,-1.6281,-0.9982
8535.0,0.8603,-8.3251,-3.0088,0.3398,-1.6281,-0.9982
8540.0,0.8603,-8.3251,-3.0088,0.3398,-1.6281,-0.9982
8546.0,1.8277,-6.0609,-1.9093,0.3398,-1.6281,-0.9982
8551.0,1.8277,-6.0609,-1.9093,0.3398,-1.6281,-0.9982
8556.0,1.8277,-6.0609,-1.9093,0.3398,-1.6281,-0.9982
8560.0,1.8277,-6.0609,-1.9093,0.4699,-0.7002,-2.311
8565.0,1.8277,-6.0609,-1.9093,0.4699,-0.7002,-2.311
8570.0,1.8277,-6.0609,-1.9093,0.4699,-0.7002,-2.311
8576.0,1.8277,-6.0609,-1.9093,0.4699,-0.7002,-2.311
8580.0,4.9551,-4.3877,-4.6343,0.4699,-0.7002,-2.311
8585.0,4.9551,-4.3877,-4.6343,0.4699,-0.7002,-2.311
8590.0,4.9551,-4.3877,-4.6343,0.0014,2.2643,-3.1821
8595.0,4.9551,-4.3877,-4.6343,0.0014,2.2643,-3.1821
8601.0,4.9551,-4.3877,-4.6343,0.0014,2.2643,-3.1821
8605.0,4.9551,-7.3908,-0.3691,0.0014,2.2643,-3.1821
8611.0,4.8593,-7.3908,-0.3691,0.0014,2.2643,-3.1821
8615.0,4.8593,-7.3908,-0.3691,0.0014,2.2643,-3.1821
8620.0,4.8593,-7.3908,-0.3691,0.0014,2.2643,-3.1821
8626.0,4.8593,-7.3908,-0.3691,-0.4232,1.0536,-2.1503
8630.0,4.8593,-7.3908,-0.3691,-0.4232,1.0536,-2.1503
8636.0,4.6678,-8.2345,-1.4828,-0.4232,1.0536,-2.1503
8640.0,4.6678,-8.2345,-1.4828,-0.4232,1.0536,-2.1503
8645.0,4.6678,-8.2345,-1.4828,-0.4232,1.0536,-2.1503
8650.0,4.6678,-8.2345,-1.4828,-0.4232,1.0536,-2.1503
8656.0,4.6678,-8.2345,-1.4828,-0.4232,1.0536,-2.1503
8660.0,4.1553,-9.9125,-4.0798,-0.188,0.2601,-1.1796
8665.0,4.1553,-9.9125,-4.0798,-0.188,0.2601,-1.1796
8670.0,4.1553,-9.9125,-4.0798,-0.188,0.2601,-1.1796
8675.0,4.1553,-9.9125,-4.0798,-0.188,0.2601,-1.1796
8680.0,4.1553,-9.9125,-4.0798,-0.188,0.2601,-1.1796
8685.0,2.1151,-13.1253,-1.6629,-0.188,0.2601,-1.1796
8690.0,2.1151,-13.1253,-1.6629,-0.02,-0.8853,-1.5541
8696.0,2.1151,-13.1253,-1.6629,-0.02,-0.8853,-1.5541
8700.0,2.1151,-13.1253,-1.6629,-0.02,-0.8853,-1.5541
8705.0,2.1151,-13.1253,-1.6629,-0.02,-0.8853,-1.5541
8710.0,2.1151,-13.1253,-1.6629,-0.02,-0.8853,-1.5541
8715.0,0.1084,-15.2513,-4.004,-0.02,-0.8853,-1.5541
8720.0,0.1084,-15.2513,-4.004,0.1101,-0.7955,-2.2242
8725.0,0.1084,-15.2513,-4.004,0.1101,-0.7955,-2.2242
8730.0,0.1084,-15.2513,-4.004,0.1101,-0.7955,-2.2242
8735.0,0.1084,-15.2513,-4.004,0.1101,-0.7955,-2.2242
8740.0,1.7751,-14.031,-5.402,0.1101,-0.7955,-2.2242
8745.0,1.7751,-14.031,-5.402,0.1101,-0.7955,-2.2242
8750.0,1.7751,-14.031,-5.402,0.1101,-0.7955,-2.2242
8755.0,1.7751,-14.031,-5.402,0.7277,0.3022,-2.4771
8760.0,1.7751,-14.031,-5.402,0.7277,0.3022,-2.4771
8766.0,1.7751,-14.031,-5.402,0.7277,0.3022,-2.4771
8770.0,5.525,-9.9935,-3.6391,0.7277,0.3022,-2.4771
8775.0,5.525,-9.9935,-3.6391,0.7277,0.3022,-2.4771
8780.0,5.525,-9.9935,-3.6391,0.7277,0.3022,-2.4771
8785.0,5.525,-9.9935,-3.6391,0.2909,-0.7943,-1.6146
8791.0,5.525,-9.9935,-3.6391,0.2909,-0.7943,-1.6146
8795.0,5.525,-9.9935,-3.6391,0.2909,-0.7943,-1.6146
8800.0,6.138,-9.9744,-4.5063,0.2909,-0.7943,-1.6146
8805.0,6.138,-9.9744,-4.5063,0.2909,-0.7943,-1.6146
8810.0,6.138,-9.9744,-4.5063,0.2909,-0.7943,-1.6146
8815.0,6.138,-9.9744,-4.5063,0.3178,-1.6269,-0.4796
8820.0,6.138,-9.9744,-4.5063,0.3178,-1.6269,-0.4796
8825.0,4.9359,-11.0994,-5.6105,0.3178,-1.6269,-0.4796
8831.0,4.9359,-11.0994,-5.6105,0.3178,-1.6269,-0.4796
8835.0,4.9359,-11.0994,-5.6105,0.3178,-1.6269,-0.4796
8841.0,4.9359,-11.0994,-5.6105,0.3178,-1.6269,-0.4796
8845.0,4.9359,-11.0994,-5.6105,0.7406,-1.8132,0.1178
8850.0,4.9359,-11.0994,-5.6105,0.7406,-1.8132,0.1178
8855.0,3.5997,-11.3473,-5.3878,0.7406,-1.8132,0.1178
8860.0,3.5997,-11.3473,-5.3878,0.7406,-1.8132,0.1178
8866.0,3.5997,-11.3473,-5.3878,0.7406,-1.8132,0.1178
8870.0,3.5997,-11.3473,-5.3878,0.7406,-1.8132,0.1178
8875.0,3.5997,-11.3473,-5.3878,0.7406,-1.8132,0.1178
8880.0,2.8718,-10.5178,-5.511,0.6721,-0.8969,0.3268
8885.0,2.8718,-10.5178,-5.511,0.6721,-0.8969,0.3268
8891.0,2.8718,-10.5178,-5.511,0.6721,-0.8969,0.3268
8895.0,2.8718,-10.5178,-5.511,0.6721,-0.8969,0.3268
8900.0,2.8718,-10.5178,-5.511,0.6721,-0.8969,0.3268
8905.0,2.8718,-10.5178,-5.511,0.6721,-0.8969,0.3268
8911.0,2.2444,-6.1419,-4.2172,0.7088,-0.5481,0.5919
8915.0,2.2444,-6.1419,-4.2172,0.7088,-0.5481,0.5919
8920.0,2.2444,-6.1419,-4.2172,0.7088,-0.5481,0.5919
8926.0,2.2444,-6.1419,-4.2172,0.7088,-0.5481,0.5919
8930.0,2.2444,-6.1419,-4.2172,0.7088,-0.5481,0.5919
8935.0,2.2444,-6.1419,-4.2172,0.7088,-0.5481,0.5919
8940.0,0.9274,-4.1351,-0.5018,-0.0017,-0.754,1.2968
8946.0,0.9274,-4.1351,-0.5018,-0.0017,-0.754,1.2968
8950.0,0.9274,-4.1351,-0.5018,-0.0017,-0.754,1.2968
8955.0,0.9274,-4.1351,-0.5018,-0.0017,-0.754,1.2968
8960.0,0.9274,-4.1351,-0.5018,-0.0017,-0.754,1.2968
8965.0,0.549,-5.8273,0.4318,-0.0017,-0.754,1.2968
8970.0,0.549,-5.8273,0.4318,-0.2692,0.1373,1.1386
8975.0,0.549,-5.8273,0.4318,-0.2692,0.1373,1.1386
8980.0,0.549,-5.8273,0.4318,-0.2692,0.1373,1.1386
8985.0,0.549,-5.8273,0.4318,-0.2692,0.1373,1.1386
8990.0,2.0768,-6.6853,-0.407,-0.2692,0.1373,1.1386
8995.0,2.0768,-6.6853,-0.407,-0.2692,0.1373,1.1386
9000.0,2.0768,-6.6853,-0.407,-0.3743,1.1037,0.5186
9005.0,2.0768,-6.6853,-0.407,-0.3743,1.1037,0.5186
9010.0,2.0768,-6.6853,-0.407,-0.3743,1.1037,0.5186
9015.0,3.662,-6.509,-1.3217,-0.3743,1.1037,0.5186
9020.0,3.662,-6.509,-1.3217,-0.3743,1.1037,0.5186
9025.0,3.662,-6.509,-1.3217,-0.3743,1.1037,0.5186
9031.0,3.662,-6.509,-1.3217,-0.4452,2.2319,1.0366
9035.0,3.662,-6.509,-1.3217,-0.4452,2.2319,1.0366
9040.0,3.662,-6.509,-1.3217,-0.4452,2.2319,1.0366
9045.0,2.3785,-6.5042,-3.2268,-0.4452,2.2319,1.0366
9051.0,2.3785,-6.5042,-3.2268,-0.4452,2.2319,1.0366
9055.0,2.3785,-6.5042,-3.2268,-0.4452,2.2319,1.0366
9060.0,2.3785,-6.5042,-3.2268,-0.2411,1.7262,2.0042
9065.0,2.3785,-6.5042,-3.2268,-0.2411,1.7262,2.0042
9070.0,0.4197,-7.3288,-2.4401,-0.2411,1.7262,2.0042
9075.0,0.4197,-7.3288,-2.4401,-0.2411,1.7262,2.0042
9080.0,0.4197,-7.3288,-2.4401,-0.2411,1.7262,2.0042
9086.0,0.4197,-7.3288,-2.4401,-0.2411,1.7262,2.0042
9090.0,0.4197,-7.3288,-2.4401,0.0509,1.8508,2.1356
9095.0,0.8028,-8.6397,-1.1463,0.0509,1.8508,2.1356
9100.0,0.8028,-8.6397,-1.1463,0.0509,1.8508,2.1356
9105.0,0.8028,-8.6397,-1.1463,0.0509,1.8508,2.1356
9110.0,0.8028,-8.6397,-1.1463,0.0509,1.8508,2.1356
9115.0,0.8028,-8.6397,-1.1463,0.0509,1.8508,2.1356
9120.0,0.8028,-8.6397,-1.1463,0.2769,2.706,1.4184
9125.0,2.5653,-7.9342,-0.6914,0.2769,2.706,1.4184
9130.0,2.5653,-7.9342,-0.6914,0.2769,2.706,1.4184
9135.0,2.5653,-7.9342,-0.6914,0.2769,2.706,1.4184
9140.0,2.5653,-7.9342,-0.6914,0.2769,2.706,1.4184
9145.0,2.5653,-7.9342,-0.6914,0.2769,2.706,1.4184
9150.0,4.6007,-5.7177,-2.6012,0.0667,3.3676,0.6444
9155.0,4.6007,-5.7177,-2.6012,0.0667,3.3676,0.6444
9161.0,4.6007,-5.7177,-2.6012,0.0667,3.3676,0.6444
9165.0,4.6007,-5.7177,-2.6012,0.0667,3.3676,0.6444
9170.0,4.6007,-5.7177,-2.6012,0.0667,3.3676,0.6444
9175.0,7.0767,-5.9369,-7.037,0.0667,3.3676,0.6444
9180.0,7.0767,-5.9369,-7.037,0.0667,3.3676,0.6444
9186.0,7.0767,-5.9369,-7.037,-0.5276,1.6932,0.0415
9190.0,7.0767,-5.9369,-7.037,-0.5276,1.6932,0.0415
9195.0,7.0767,-5.9369,-7.037,-0.5276,1.6932,0.0415
9200.0,7.0767,-5.9369,-7.037,-0.5276,1.6932,0.0415
9205.0,7.9963,-7.1382,-11.7713,-0.5276,1.6932,0.0415
9210.0,7.9963,-7.1382,-11.7713,-0.5276,1.6932,0.0415
9215.0,7.9963,-7.1382,-11.7713,-0.3505,-2.4253,0.1093
9220.0,7.9963,-7.1382,-11.7713,-0.3505,-2.4253,0.1093
9225.0,7.9963,-7.1382,-11.7713,-0.3505,-2.4253,0.1093
9230.0,6.7942,-7.3098,-7.8568,-0.3505,-2.4253,0.1093
9236.0,6.7942,-7.3098,-7.8568,-0.3505,-2.4253,0.1093
9240.0,6.7942,-7.3098,-7.8568,-0.3505,-2.4253,0.1093
9245.0,6.7942,-7.3098,-7.8568,0.1706,-2.6092,-0.1106
9250.0,6.7942,-7.3098,-7.8568,0.1706,-2.6092,-0.1106
9255.0,6.7942,-7.3098,-7.8568,0.1706,-2.6092,-0.1106
9260.0,4.0595,-6.8188,-1.5444,0.1706,-2.6092,-0.1106
9265.0,4.0595,-6.8188,-1.5444,0.1706,-2.6092,-0.1106
9270.0,4.0595,-6.8188,-1.5444,0.1706,-2.6092,-0.1106
9275.0,4.0595,-6.8188,-1.5444,-0.0548,-3.1406,0.8497
9280.0,4.0595,-6.8188,-1.5444,-0.0548,-3.1406,0.8497
9285.0,4.548,-10.3796,-1.4307,-0.0548,-3.1406,0.8497
9290.0,4.548,-10.3796,-1.4307,-0.0548,-3.1406,0.8497
9295.0,4.548,-10.3796,-1.4307,-0.0548,-3.1406,0.8497
9301.0,4.548,-10.3796,-1.4307,-0.0548,-3.1406,0.8497
9305.0,4.548,-10.3796,-1.4307,-0.3315,-4.0612,0.7183
9310.0,4.548,-10.3796,-1.4307,-0.3315,-4.0612,0.7183
9315.0,6.8277,-17.9731,2.4127,-0.3315,-4.0612,0.7183
9320.0,6.8277,-17.9731,2.4127,-0.3315,-4.0612,0.7183
9325.0,6.8277,-17.9731,2.4127,-0.3315,-4.0612,0.7183
9331.0,6.8277,-17.9731,2.4127,-0.3315,-4.0612,0.7183
9335.0,6.8277,-17.9731,2.4127,-0.6761,-0.2946,1.0659
9340.0,5.4819,-15.5993,2.1663,-0.6761,-0.2946,1.0659
9345.0,5.4819,-15.5993,2.1663,-0.6761,-0.2946,1.0659
9351.0,5.4819,-15.5993,2.1663,-0.6761,-0.2946,1.0659
9355.0,5.4819,-15.5993,2.1663,-0.6761,-0.2946,1.0659
9361.0,5.4819,-15.5993,2.1663,-0.6761,-0.2946,1.0659
9365.0,5.4819,-15.5993,2.1663,-0.4256,1.1226,-0.1051
9370.0,-4.1588,-8.1487,-6.8901,-0.4256,1.1226,-0.1051
9375.0,-4.1588,-8.1487,-6.8901,-0.4256,1.1226,-0.1051
9381.0,-4.1588,-8.1487,-6.8901,-0.4256,1.1226,-0.1051
9385.0,-4.1588,-8.1487,-6.8901,-0.4256,1.1226,-0.1051
9391.0,-4.1588,-8.1487,-6.8901,-0.4256,1.1226,-0.1051
9395.0,-0.4998,-6.2134,4.6969,0.0435,0.2613,-0.6854
9400.0,-0.4998,-6.2134,4.6969,0.0435,0.2613,-0.6854
9405.0,-0.4998,-6.2134,4.6969,0.0435,0.2613,-0.6854
9410.0,-0.4998,-6.2134,4.6969,0.0435,0.2613,-0.6854
9415.0,-0.4998,-6.2134,4.6969,0.0435,0.2613,-0.6854
9420.0,0.1276,-11.3187,2.9861,0.0435,0.2613,-0.6854
9425.0,0.1276,-11.3187,2.9861,0.0435,0.2613,-0.6854
9431.0,0.1276,-11.3187,2.9861,-0.1055,1.7665,-0.4863
9436.0,0.1276,-11.3187,2.9861,-0.1055,1.7665,-0.4863
9440.0,0.1276,-11.3187,2.9861,-0.1055,1.7665,-0.4863
9445.0,3.7051,-22.1155,3.1046,-0.1055,1.7665,-0.4863
9450.0,3.7051,-22.1155,3.1046,-0.1055,1.7665,-0.4863
9455.0,3.7051,-22.1155,3.1046,-0.1055,1.7665,-0.4863
9460.0,3.7051,-22.1155,3.1046,-0.1055,1.7665,-0.4863
9465.0,3.7051,-22.1155,3.1046,-0.326,2.6162,3.0806
9470.0,3.7051,-22.1155,3.1046,-0.326,2.6162,3.0806
9475.0,7.2396,-12.9823,-36.4713,-0.326,2.6162,3.0806
9480.0,7.2396,-12.9823,-36.4713,-0.326,2.6162,3.0806
9485.0,7.2396,-12.9823,-36.4713,-0.326,2.6162,3.0806
9490.0,7.2396,-12.9823,-36.4713,-0.326,2.6162,3.0806
9495.0,7.2396,-12.9823,-36.4713,0.3728,-4.6031,1.218
9501.0,2.1821,-9.779,4.0856,0.3728,-4.6031,1.218
9506.0,2.1821,-9.779,4.0856,0.3728,-4.6031,1.218
9511.0,2.1821,-9.779,4.0856,0.3728,-4.6031,1.218
9516.0,2.1821,-9.779,4.0856,0.3728,-4.6031,1.218
9520.0,2.1821,-9.779,4.0856,0.3728,-4.6031,1.218
9525.0,2.1821,-9.779,4.0856,0.3728,-4.6031,1.218
9530.0,1.7463,-5.4603,1.0621,1.1199,-1.0044,0.824
9535.0,1.7463,-5.4603,1.0621,1.1199,-1.0044,0.824
9540.0,1.7463,-5.4603,1.0621,1.1199,-1.0044,0.824
9546.0,1.7463,-5.4603,1.0621,1.1199,-1.0044,0.824
9550.0,1.7463,-5.4603,1.0621,1.1199,-1.0044,0.824
9555.0,1.7415,-2.7289,1.2516,1.1199,-1.0044,0.824
9561.0,1.7415,-2.7289,1.2516,0.7686,-0.4162,-0.1173
9566.0,1.7415,-2.7289,1.2516,0.7686,-0.4162,-0.1173
9570.0,1.7415,-2.7289,1.2516,0.7686,-0.4162,-0.1173
9575.0,1.7415,-2.7289,1.2516,0.7686,-0.4162,-0.1173
9581.0,3.5471,-6.8569,0.2896,0.7686,-0.4162,-0.1173
9586.0,3.5471,-6.8569,0.2896,0.7686,-0.4162,-0.1173
9590.0,3.5471,-6.8569,0.2896,0.7686,-0.4162,-0.1173
9595.0,3.5471,-6.8569,0.2896,0.7686,-0.4162,-0.1173
9600.0,3.5471,-6.8569,0.2896,0.7686,-0.4162,-0.1173
9606.0,4.1362,-9.493,0.5029,0.0148,-0.239,-0.6696
9610.0,4.1362,-9.493,0.5029,0.0148,-0.239,-0.6696
9615.0,4.1362,-9.493,0.5029,0.0148,-0.239,-0.6696
9620.0,4.1362,-9.493,0.5029,0.0148,-0.239,-0.6696
9625.0,4.1362,-9.493,0.5029,0.0148,-0.239,-0.6696
9631.0,4.1362,-9.493,0.5029,0.0148,-0.239,-0.6696
9635.0,4.7348,-10.4702,1.0431,-0.4733,2.3291,0.8918
9640.0,4.7348,-10.4702,1.0431,-0.4733,2.3291,0.8918
9645.0,4.7348,-10.4702,1.0431,-0.4733,2.3291,0.8918
9650.0,4.7348,-10.4702,1.0431,-0.4733,2.3291,0.8918
9655.0,4.7348,-10.4702,1.0431,-0.4733,2.3291,0.8918
9660.0,4.7348,-10.4702,1.0431,-0.4733,2.3291,0.8918
9665.0,2.6084,-5.751,0.1427,-0.4733,2.3291,0.8918
9670.0,2.6084,-5.751,0.1427,-0.7579,1.0597,1.2919
9675.0,2.6084,-5.751,0.1427,-0.7579,1.0597,1.2919
9680.0,2.6084,-5.751,0.1427,-0.7579,1.0597,1.2919
9685.0,2.6084,-5.751,0.1427,-0.7579,1.0597,1.2919
9690.0,1.4973,-5.7749,0.1522,-0.7579,1.0597,1.2919
9695.0,1.4973,-5.7749,0.1522,-0.7579,1.0597,1.2919
9700.0,1.4973,-5.7749,0.1522,-0.4299,0.8667,2.5137
9705.0,1.4973,-5.7749,0.1522,-0.4299,0.8667,2.5137
9710.0,1.4973,-5.7749,0.1522,-0.4299,0.8667,2.5137
9715.0,2.4264,-10.718,-4.5537,-0.4299,0.8667,2.5137
9720.0,2.4264,-10.718,-4.5537,-0.4299,0.8667,2.5137
9725.0,2.4264,-10.718,-4.5537,-0.4299,0.8667,2.5137
9730.0,2.4264,-10.718,-4.5537,0.0814,-3.2213,0.8252
9735.0,2.4264,-10.718,-4.5537,0.0814,-3.2213,0.8252
9744.0,1.5883,-8.3966,2.0715,0.0814,-3.2213,0.8252
9746.0,1.5883,-8.3966,2.0715,0.0814,-3.2213,0.8252
9751.0,1.5883,-8.3966,2.0715,0.0814,-3.2213,0.8252
9755.0,1.5883,-8.3966,2.0715,0.0814,-3.2213,0.8252
9760.0,1.5883,-8.3966,2.0715,0.0814,-3.2213,0.8252
9765.0,1.5883,-8.3966,2.0715,0.3068,-0.9733,-0.9371
9770.0,0.2856,-5.036,2.1805,0.3068,-0.9733,-0.9371
9775.0,0.2856,-5.036,2.1805,0.3068,-0.9733,-0.9371
9780.0,0.2856,-5.036,2.1805,0.3068,-0.9733,-0.9371
9787.0,0.2856,-5.036,2.1805,0.3068,-0.9733,-0.9371
9790.0,0.2856,-5.036,2.1805,0.3068,-0.9733,-0.9371
9795.0,0.2856,-5.036,2.1805,-0.0206,0.7793,-1.0293
9800.0,-4.9155,-10.1937,-10.3022,-0.0206,0.7793,-1.0293
9805.0,-4.9155,-10.1937,-10.3022,-0.0206,0.7793,-1.0293
9810.0,-4.9155,-10.1937,-10.3022,-0.0206,0.7793,-1.0293
9815.0,-4.9155,-10.1937,-10.3022,-0.0206,0.7793,-1.0293
9820.0,-4.9155,-10.1937,-10.3022,-0.0206,0.7793,-1.0293
9826.0,-1.2661,-7.9628,0.7398,0.3831,-0.0606,-1.2065
9830.0,-1.2661,-7.9628,0.7398,0.3831,-0.0606,-1.2065
9835.0,-1.2661,-7.9628,0.7398,0.3831,-0.0606,-1.2065
9840.0,-1.2661,-7.9628,0.7398,0.3831,-0.0606,-1.2065
9845.0,-1.2661,-7.9628,0.7398,0.3831,-0.0606,-1.2065
9850.0,-0.2891,-7.1429,1.4222,0.3831,-0.0606,-1.2065
9856.0,-0.2891,-7.1429,1.4222,0.0637,1.3889,-1.873
9861.0,-0.2891,-7.1429,1.4222,0.0637,1.3889,-1.873
9865.0,-0.2891,-7.1429,1.4222,0.0637,1.3889,-1.873
9870.0,-0.2891,-7.1429,1.4222,0.0637,1.3889,-1.873
9875.0,-0.2891,-7.1429,1.4222,0.0637,1.3889,-1.873
9880.0,2.6946,-8.0343,-3.0704,0.0637,1.3889,-1.873
9886.0,2.6946,-8.0343,-3.0704,0.0637,1.3889,-1.873
9890.0,2.6946,-8.0343,-3.0704,0.0356,2.3914,-2.4276
9895.0,2.6946,-8.0343,-3.0704,0.0356,2.3914,-2.4276
9900.0,2.6946,-8.0343,-3.0704,0.0356,2.3914,-2.4276
9905.0,2.6946,-8.0343,-3.0704,0.0356,2.3914,-2.4276
9910.0,5.0078,-10.2557,-4.5395,0.0356,2.3914,-2.4276
9916.0,5.0078,-10.2557,-4.5395,0.0356,2.3914,-2.4276
9920.0,5.0078,-10.2557,-4.5395,-0.1135,1.3938,-2.504
9925.0,5.0078,-10.2557,-4.5395,-0.1135,1.3938,-2.504
9930.0,5.0078,-10.2557,-4.5395,-0.1135,1.3938,-2.504
9936.0,5.0078,-10.2557,-4.5395,-0.1135,1.3938,-2.504
9940.0,5.5825,-12.3817,-4.8807,-0.1135,1.3938,-2.504
9945.0,5.5825,-12.3817,-4.8807,-0.1135,1.3938,-2.504
9950.0,5.5825,-12.3817,-4.8807,0.0453,-0.575,-2.6873
9955.0,5.5825,-12.3817,-4.8807,0.0453,-0.575,-2.6873
9961.0,5.5825,-12.3817,-4.8807,0.0453,-0.575,-2.6873
9966.0,3.5518,-15.1178,-1.4307,0.0453,-0.575,-2.6873
9970.0,3.5518,-15.1178,-1.4307,0.0453,-0.575,-2.6873
9975.0,3.5518,-15.1178,-1.4307,0.0453,-0.575,-2.6873
9981.0,3.5518,-15.1178,-1.4307,0.8517,-0.9757,-2.672
9985.0,3.5518,-15.1178,-1.4307,0.8517,-0.9757,-2.672
9990.0,3.5518,-15.1178,-1.4307,0.8517,-0.9757,-2.672
9995.0,5.7214,-12.3149,-3.5064,0.8517,-0.9757,-2.672
10000.0,5.7214,-12.3149,-3.5064,0.8517,-0.9757,-2.672
10005.0,5.7214,-12.3149,-3.5064,0.8517,-0.9757,-2.672
10010.0,5.7214,-12.3149,-3.5064,0.8517,-0.9757,-2.672
10015.0,5.7214,-12.3149,-3.5064,0.5462,0.4525,-2.81
10021.0,6.1476,-9.3071,-3.6106,0.5462,0.4525,-2.81
10025.0,6.1476,-9.3071,-3.6106,0.5462,0.4525,-2.81
10030.0,6.1476,-9.3071,-3.6106,0.5462,0.4525,-2.81
10035.0,6.1476,-9.3071,-3.6106,0.5462,0.4525,-2.81
10040.0,6.1476,-9.3071,-3.6106,0.5462,0.4525,-2.81
10045.0,6.1476,-9.3071,-3.6106,-0.3926,-0.2512,-2.2786
10050.0,5.7549,-9.8362,-4.0798,-0.3926,-0.2512,-2.2786
10055.0,5.7549,-9.8362,-4.0798,-0.3926,-0.2512,-2.2786
10060.0,5.7549,-9.8362,-4.0798,-0.3926,-0.2512,-2.2786
10065.0,5.7549,-9.8362,-4.0798,-0.3926,-0.2512,-2.2786
10070.0,5.7549,-9.8362,-4.0798,-0.3926,-0.2512,-2.2786
10075.0,5.7549,-9.8362,-4.0798,-0.2705,-2.4552,-0.5651
10080.0,2.3354,-17.3105,-6.1555,-0.2705,-2.4552,-0.5651
10085.0,2.3354,-17.3105,-6.1555,-0.2705,-2.4552,-0.5651
10090.0,2.3354,-17.3105,-6.1555,-0.2705,-2.4552,-0.5651
10095.0,2.3354,-17.3105,-6.1555,-0.2705,-2.4552,-0.5651
10101.0,2.3354,-17.3105,-6.1555,-0.2705,-2.4552,-0.5651
10105.0,0.3718,-13.5495,-4.8002,-0.2705,-2.4552,-0.5651
10110.0,0.3718,-13.5495,-4.8002,0.9305,-2.3887,0.5748
10115.0,0.3718,-13.5495,-4.8002,0.9305,-2.3887,0.5748
10120.0,0.3718,-13.5495,-4.8002,0.9305,-2.3887,0.5748
10125.0,0.3718,-13.5495,-4.8002,0.9305,-2.3887,0.5748
10130.0,0.3718,-13.5495,-4.8002,0.9305,-2.3887,0.5748
10135.0,0.1946,-8.349,-3.5822,0.9305,-2.3887,0.5748
10140.0,0.1946,-8.349,-3.5822,1.2591,-1.002,0.8222
10146.0,0.1946,-8.349,-3.5822,1.2591,-1.002,0.8222
10150.0,0.1946,-8.349,-3.5822,1.2591,-1.002,0.8222
10156.0,0.1946,-8.349,-3.5822,1.2591,-1.002,0.8222
10161.0,1.3728,-4.5832,-0.7862,1.2591,-1.002,0.8222
10165.0,1.3728,-4.5832,-0.7862,1.2591,-1.002,0.8222
10171.0,1.3728,-4.5832,-0.7862,0.7057,0.4818,0.9609
10175.0,1.3728,-4.5832,-0.7862,0.7057,0.4818,0.9609
10180.0,1.3728,-4.5832,-0.7862,0.7057,0.4818,0.9609
10185.0,1.2099,-3.2914,0.3796,0.7057,0.4818,0.9609
10190.0,1.2099,-3.2914,0.3796,0.7057,0.4818,0.9609
10195.0,1.2099,-3.2914,0.3796,0.7057,0.4818,0.9609
10201.0,1.2099,-3.2914,0.3796,0.22,1.2411,1.1093
10205.0,1.2099,-3.2914,0.3796,0.22,1.2411,1.1093
10210.0,1.435,-4.24,-0.1748,0.22,1.2411,1.1093
10215.0,1.435,-4.24,-0.1748,0.22,1.2411,1.1093
10220.0,1.435,-4.24,-0.1748,0.22,1.2411,1.1093
10225.0,1.435,-4.24,-0.1748,0.22,1.2411,1.1093
10230.0,1.435,-4.24,-0.1748,0.0942,1.9619,1.2718
10235.0,1.435,-4.24,-0.1748,0.0942,1.9619,1.2718
10240.0,2.139,-6.018,-0.8715,0.0942,1.9619,1.2718
10245.0,2.139,-6.018,-0.8715,0.0942,1.9619,1.2718
10250.0,2.139,-6.018,-0.8715,0.0942,1.9619,1.2718
10256.0,2.139,-6.018,-0.8715,0.0942,1.9619,1.2718
10260.0,2.139,-6.018,-0.8715,0.0924,2.7817,1.8857
10266.0,1.5069,-8.3442,-3.0609,0.0924,2.7817,1.8857
10271.0,1.5069,-8.3442,-3.0609,0.0924,2.7817,1.8857
10275.0,1.5069,-8.3442,-3.0609,0.0924,2.7817,1.8857
10281.0,1.5069,-8.3442,-3.0609,0.0924,2.7817,1.8857
10285.0,1.5069,-8.3442,-3.0609,0.0924,2.7817,1.8857
10290.0,1.5069,-8.3442,-3.0609,0.0924,2.7817,1.8857
10295.0,3.3172,-8.6016,-2.3358,-0.0616,2.3981,2.2089
10300.0,3.3172,-8.6016,-2.3358,-0.0616,2.3981,2.2089
10306.0,3.3172,-8.6016,-2.3358,-0.0616,2.3981,2.2089
10310.0,3.3172,-8.6016,-2.3358,-0.0616,2.3981,2.2089
10316.0,3.3172,-8.6016,-2.3358,-0.0616,2.3981,2.2089
10320.0,3.935,-9.798,-0.3644,-0.0616,2.3981,2.2089
10325.0,3.935,-9.798,-0.3644,0.1211,3.213,1.62
10330.0,3.935,-9.798,-0.3644,0.1211,3.213,1.62
10335.0,3.935,-9.798,-0.3644,0.1211,3.213,1.62
10340.0,3.935,-9.798,-0.3644,0.1211,3.213,1.62
10345.0,4.5001,-8.0915,-1.279,0.1211,3.213,1.62
10350.0,4.5001,-8.0915,-1.279,0.1211,3.213,1.62
10355.0,4.5001,-8.0915,-1.279,0.151,3.1238,0.5216
10360.0,4.5001,-8.0915,-1.279,0.151,3.1238,0.5216
10365.0,4.5001,-8.0915,-1.279,0.151,3.1238,0.5216
10371.0,8.025,-6.0752,-7.5867,0.151,3.1238,0.5216
10375.0,8.025,-6.0752,-7.5867,0.151,3.1238,0.5216
10380.0,8.025,-6.0752,-7.5867,0.151,3.1238,0.5216
10385.0,8.025,-6.0752,-7.5867,-0.5936,3.0676,-0.6854
10390.0,8.025,-6.0752,-7.5867,-0.5936,3.0676,-0.6854
10395.0,8.025,-6.0752,-7.5867,-0.5936,3.0676,-0.6854
10400.0,8.2692,-6.2944,-11.3164,-0.5936,3.0676,-0.6854
10405.0,8.2692,-6.2944,-11.3164,-0.5936,3.0676,-0.6854
10411.0,8.2692,-6.2944,-11.3164,-0.5936,3.0676,-0.6854
10416.0,8.2692,-6.2944,-11.3164,-0.6724,-0.9751,0.4294
10420.0,8.2692,-6.2944,-11.3164,-0.6724,-0.9751,0.4294
10426.0,5.6495,-5.2505,-4.3262,-0.6724,-0.9751,0.4294
10430.0,5.6495,-5.2505,-4.3262,-0.6724,-0.9751,0.4294
10435.0,5.6495,-5.2505,-4.3262,-0.6724,-0.9751,0.4294
10440.0,5.6495,-5.2505,-4.3262,-0.6724,-0.9751,0.4294
10445.0,5.6495,-5.2505,-4.3262,-0.6724,-0.9751,0.4294
10450.0,4.1409,-5.1456,-1.0042,-0.298,-3.972,1.0836
10455.0,4.1409,-5.1456,-1.0042,-0.298,-3.972,1.0836
10460.0,4.1409,-5.1456,-1.0042,-0.298,-3.972,1.0836
10465.0,4.1409,-5.1456,-1.0042,-0.298,-3.972,1.0836
10470.0,4.1409,-5.1456,-1.0042,-0.298,-3.972,1.0836
10475.0,4.1409,-5.1456,-1.0042,-0.298,-3.972,1.0836
10480.0,3.3603,-6.5852,-1.0421,-0.0054,-2.7644,0.1667
10485.0,3.3603,-6.5852,-1.0421,-0.0054,-2.7644,0.1667
10490.0,3.3603,-6.5852,-1.0421,-0.0054,-2.7644,0.1667
10496.0,3.3603,-6.5852,-1.0421,-0.0054,-2.7644,0.1667
10500.0,3.3603,-6.5852,-1.0421,-0.0054,-2.7644,0.1667
10506.0,3.3842,-10.1127,-0.5682,-0.0054,-2.7644,0.1667
10511.0,3.3842,-10.1127,-0.5682,-0.4256,-1.8016,0.4581
10516.0,3.3842,-10.1127,-0.5682,-0.4256,-1.8016,0.4581
10520.0,3.3842,-10.1127,-0.5682,-0.4256,-1.8016,0.4581
10525.0,3.3842,-10.1127,-0.5682,-0.4256,-1.8016,0.4581
10530.0,5.4245,-15.3418,-1.4259,-0.4256,-1.8016,0.4581
10535.0,5.4245,-15.3418,-1.4259,-0.4256,-1.8016,0.4581
10540.0,5.4245,-15.3418,-1.4259,-0.4256,-1.8016,0.4581
10546.0,5.4245,-15.3418,-1.4259,-0.7017,-1.1327,0.967
10550.0,5.4245,-15.3418,-1.4259,-0.7017,-1.1327,0.967
10556.0,5.9225,-20.6807,-2.9235,-0.7017,-1.1327,0.967
10560.0,5.9225,-20.6807,-2.9235,-0.7017,-1.1327,0.967
10565.0,5.9225,-20.6807,-2.9235,-0.7017,-1.1327,0.967
10571.0,5.9225,-20.6807,-2.9235,-0.7017,-1.1327,0.967
10576.0,5.9225,-20.6807,-2.9235,-0.0939,-0.2457,0.6438
10580.0,5.9225,-20.6807,-2.9235,-0.0939,-0.2457,0.6438
10586.0,1.2818,-9.7504,-4.5205,-0.0939,-0.2457,0.6438
10590.0,1.2818,-9.7504,-4.5205,-0.0939,-0.2457,0.6438
10595.0,1.2818,-9.7504,-4.5205,-0.0939,-0.2457,0.6438
10600.0,1.2818,-9.7504,-4.5205,-0.0939,-0.2457,0.6438
10605.0,1.2818,-9.7504,-4.5205,-0.1446,-2.6544,0.2107
10610.0,1.2818,-9.7504,-4.5205,-0.1446,-2.6544,0.2107
10615.0,1.2913,-3.0959,2.626,-0.1446,-2.6544,0.2107
10620.0,1.2913,-3.0959,2.626,-0.1446,-2.6544,0.2107
10625.0,1.2913,-3.0959,2.626,-0.1446,-2.6544,0.2107
10630.0,1.2913,-3.0959,2.626,-0.1446,-2.6544,0.2107
10635.0,1.2913,-3.0959,2.626,-0.7665,-0.9409,0.7043
10640.0,0.2281,-3.4105,1.7255,-0.7665,-0.9409,0.7043
10645.0,0.2281,-3.4105,1.7255,-0.7665,-0.9409,0.7043
10651.0,0.2281,-3.4105,1.7255,-0.7665,-0.9409,0.7043
10655.0,0.2281,-3.4105,1.7255,-0.7665,-0.9409,0.7043
10660.0,0.2281,-3.4105,1.7255,-0.7665,-0.9409,0.7043
10666.0,0.2281,-3.4105,1.7255,-0.7665,-0.9409,0.7043
10670.0,1.0327,-8.9925,1.7018,-0.7329,0.2258,0.1307
10675.0,1.0327,-8.9925,1.7018,-0.7329,0.2258,0.1307
10680.0,1.0327,-8.9925,1.7018,-0.7329,0.2258,0.1307
10686.0,1.0327,-8.9925,1.7018,-0.7329,0.2258,0.1307
10690.0,1.0327,-8.9925,1.7018,-0.7329,0.2258,0.1307
10695.0,2.709,-16.1427,3.3416,-0.7329,0.2258,0.1307
10700.0,2.709,-16.1427,3.3416,-0.7903,3.0762,0.3359
10705.0,2.709,-16.1427,3.3416,-0.7903,3.0762,0.3359
10710.0,2.709,-16.1427,3.3416,-0.7903,3.0762,0.3359
10715.0,2.709,-16.1427,3.3416,-0.7903,3.0762,0.3359
10720.0,2.709,-16.1427,3.3416,-0.7903,3.0762,0.3359
10726.0,4.299,-19.57,1.0526,-0.7903,3.0762,0.3359
10730.0,4.299,-19.57,1.0526,-0.0133,4.6705,0.9609
10735.0,4.299,-19.57,1.0526,-0.0133,4.6705,0.9609
10741.0,4.299,-19.57,1.0526,-0.0133,4.6705,0.9609
10745.0,4.299,-19.57,1.0526,-0.0133,4.6705,0.9609
10750.0,5.4723,-13.5209,-5.3878,-0.0133,4.6705,0.9609
10755.0,5.4723,-13.5209,-5.3878,-0.0133,4.6705,0.9609
10760.0,5.4723,-13.5209,-5.3878,-0.2491,-0.2702,0.6676
10765.0,5.4723,-13.5209,-5.3878,-0.2491,-0.2702,0.6676
10770.0,5.4723,-13.5209,-5.3878,-0.2491,-0.2702,0.6676
10775.0,5.4723,-13.5209,-5.3878,-0.2491,-0.2702,0.6676
10780.0,2.4839,-10.6227,0.4981,-0.2491,-0.2702,0.6676
10785.0,2.4839,-10.6227,0.4981,-0.2491,-0.2702,0.6676
10790.0,2.4839,-10.6227,0.4981,-0.2491,-0.2702,0.6676
10795.0,2.4839,-10.6227,0.4981,0.3673,-0.98,0.5186
10800.0,2.4839,-10.6227,0.4981,0.3673,-0.98,0.5186
10805.0,2.2348,-8.0772,0.7682,0.3673,-0.98,0.5186
10810.0,2.2348,-8.0772,0.7682,0.3673,-0.98,0.5186
10815.0,2.2348,-8.0772,0.7682,0.3673,-0.98,0.5186
10820.0,2.2348,-8.0772,0.7682,0.3673,-0.98,0.5186
10825.0,2.2348,-8.0772,0.7682,0.3819,-1.4412,0.1722
10830.0,3.0202,-8.7351,1.3038,0.3819,-1.4412,0.1722
10835.0,3.0202,-8.7351,1.3038,0.3819,-1.4412,0.1722
10840.0,3.0202,-8.7351,1.3038,0.3819,-1.4412,0.1722
10846.0,3.0202,-8.7351,1.3038,0.3819,-1.4412,0.1722
10850.0,3.0202,-8.7351,1.3038,0.3819,-1.4412,0.1722
10855.0,3.0202,-8.7351,1.3038,0.6024,-0.6972,0.9798
10860.0,3.8488,-9.9792,1.4364,0.6024,-0.6972,0.9798
10865.0,3.8488,-9.9792,1.4364,0.6024,-0.6972,0.9798
10870.0,3.8488,-9.9792,1.4364,0.6024,-0.6972,0.9798
10875.0,3.8488,-9.9792,1.4364,0.6024,-0.6972,0.9798
10880.0,3.8488,-9.9792,1.4364,0.6024,-0.6972,0.9798
10885.0,3.231,-9.0306,0.6498,0.2573,-0.1633,1.3995
10890.0,3.231,-9.0306,0.6498,0.2573,-0.1633,1.3995
10895.0,3.231,-9.0306,0.6498,0.2573,-0.1633,1.3995
10900.0,3.231,-9.0306,0.6498,0.2573,-0.1633,1.3995
10905.0,3.231,-9.0306,0.6498,0.2573,-0.1633,1.3995
10911.0,2.3785,-6.2182,-0.3549,0.2573,-0.1633,1.3995
10915.0,2.3785,-6.2182,-0.3549,0.3398,0.3773,1.9004
10920.0,2.3785,-6.2182,-0.3549,0.3398,0.3773,1.9004
10925.0,2.3785,-6.2182,-0.3549,0.3398,0.3773,1.9004
10930.0,2.3785,-6.2182,-0.3549,0.3398,0.3773,1.9004
10935.0,2.3785,-6.2182,-0.3549,0.3398,0.3773,1.9004
10940.0,2.048,-2.7336,-3.2694,0.3398,0.3773,1.9004
10946.0,2.048,-2.7336,-3.2694,-0.1794,-3.3416,0.0256
10950.0,2.048,-2.7336,-3.2694,-0.1794,-3.3416,0.0256
10955.0,2.048,-2.7336,-3.2694,-0.1794,-3.3416,0.0256
10961.0,2.048,-2.7336,-3.2694,-0.1794,-3.3416,0.0256
10965.0,0.8028,-6.8474,1.7777,-0.1794,-3.3416,0.0256
10970.0,0.8028,-6.8474,1.7777,-0.1794,-3.3416,0.0256
10975.0,0.8028,-6.8474,1.7777,0.2616,-1.3893,-0.4649
10981.0,0.8028,-6.8474,1.7777,0.2616,-1.3893,-0.4649
10985.0,0.8028,-6.8474,1.7777,0.2616,-1.3893,-0.4649
10990.0,0.8028,-6.8474,1.7777,0.2616,-1.3893,-0.4649
10995.0,0.7645,-8.7112,1.7445,0.2616,-1.3893,-0.4649
11000.0,0.7645,-8.7112,1.7445,0.2616,-1.3893,-0.4649
11005.0,0.7645,-8.7112,1.7445,-0.3224,0.8477,-0.3635
11010.0,0.7645,-8.7112,1.7445,-0.3224,0.8477,-0.3635
11015.0,0.7645,-8.7112,1.7445,-0.3224,0.8477,-0.3635
11020.0,-2.655,-10.699,-10.705,-0.3224,0.8477,-0.3635
11026.0,-2.655,-10.699,-10.705,-0.3224,0.8477,-0.3635
11030.0,-2.655,-10.699,-10.705,-0.3224,0.8477,-0.3635
11035.0,-2.655,-10.699,-10.705,-0.3224,0.8477,-0.3635
11040.0,-2.655,-10.699,-10.705,0.4937,-1.3826,-1.2847
11045.0,-1.9749,-7.8627,0.6213,0.4937,-1.3826,-1.2847
11050.0,-1.9749,-7.8627,0.6213,0.4937,-1.3826,-1.2847
11055.0,-1.9749,-7.8627,0.6213,0.4937,-1.3826,-1.2847
11061.0,-1.9749,-7.8627,0.6213,0.4937,-1.3826,-1.2847
11066.0,-1.9749,-7.8627,0.6213,0.4937,-1.3826,-1.2847
11070.0,1.1189,-9.6455,0.1901,0.1651,1.2759,-1.6964
