time in milliseconds,acceleration_x,acceleration_y,acceleration_z,Roll,Pitch,Yaw
3.0,-6.2804,0.4363,6.403,0.3072,0.4093,-0.0313
8.0,-6.2804,0.4363,6.403,0.2473,0.2406,0.1562
13.0,-6.2804,0.4363,6.403,0.2473,0.2406,0.1562
18.0,-6.2804,0.4363,6.403,0.2473,0.2406,0.1562
23.0,-6.0745,1.0083,5.6874,0.2473,0.2406,0.1562
28.0,-6.0745,1.0083,5.6874,0.2473,0.2406,0.1562
33.0,-6.0745,1.0083,5.6874,0.2473,0.2406,0.1562
38.0,-6.0745,1.0083,5.6874,0.7776,-0.0391,-0.622
43.0,-6.0745,1.0083,5.6874,0.7776,-0.0391,-0.622
48.0,-6.0745,1.0083,5.6874,0.7776,-0.0391,-0.622
53.0,-6.2134,-0.2835,6.1376,0.7776,-0.0391,-0.622
58.0,-6.2134,-0.2835,6.1376,0.7776,-0.0391,-0.622
63.0,-6.2134,-0.2835,6.1376,0.7776,-0.0391,-0.622
68.0,-6.2134,-0.2835,6.1376,0.7776,-0.0391,-0.622
73.0,-6.2134,-0.2835,6.1376,0.2718,-0.9585,-1.3667
78.0,-4.494,-1.5419,7.2513,0.2718,-0.9585,-1.3667
83.0,-4.494,-1.5419,7.2513,0.2718,-0.9585,-1.3667
88.0,-4.494,-1.5419,7.2513,0.2718,-0.9585,-1.3667
93.0,-4.494,-1.5419,7.2513,0.2718,-0.9585,-1.3667
98.0,-4.494,-1.5419,7.2513,0.2718,-0.9585,-1.3667
103.0,-2.0324,-1.785,6.5072,-0.5969,-0.7538,-1.4436
108.0,-2.0324,-1.785,6.5072,-0.5969,-0.7538,-1.4436
113.0,-2.0324,-1.785,6.5072,-0.5969,-0.7538,-1.4436
118.0,-2.0324,-1.785,6.5072,-0.5969,-0.7538,-1.4436
123.0,-2.0324,-1.785,6.5072,-0.5969,-0.7538,-1.4436
128.0,-2.0324,-1.785,6.5072,-0.5969,-0.7538,-1.4436
133.0,-1.3475,-2.3237,6.4788,-0.2365,1.9144,-0.8945
138.0,-1.3475,-2.3237,6.4788,-0.2365,1.9144,-0.8945
143.0,-1.3475,-2.3237,6.4788,-0.2365,1.9144,-0.8945
148.0,-1.3475,-2.3237,6.4788,-0.2365,1.9144,-0.8945
153.0,-1.3475,-2.3237,6.4788,-0.2365,1.9144,-0.8945
158.0,-1.3475,-2.3237,6.4788,-0.2365,1.9144,-0.8945
163.0,-1.3475,-2.3237,6.4788,-0.2365,1.9144,-0.8945
168.0,-1.7354,-3.4391,4.3652,-0.1247,3.4153,-0.2982
173.0,-1.7354,-3.4391,4.3652,-0.1247,3.4153,-0.2982
178.0,-1.7354,-3.4391,4.3652,-0.1247,3.4153,-0.2982
183.0,-1.7354,-3.4391,4.3652,-0.1247,3.4153,-0.2982
188.0,-1.7354,-3.4391,4.3652,-0.1247,3.4153,-0.2982
193.0,-0.8638,-4.545,1.754,-0.1247,3.4153,-0.2982
198.0,-0.8638,-4.545,1.754,-1.6598,5.1631,0.0786
203.0,-0.8638,-4.545,1.754,-1.6598,5.1631,0.0786
208.0,-0.8638,-4.545,1.754,-1.6598,5.1631,0.0786
213.0,-0.8638,-4.545,1.754,-1.6598,5.1631,0.0786
218.0,-0.8638,-4.545,1.754,-1.6598,5.1631,0.0786
223.0,-0.9404,-6.0752,1.9293,-1.6598,5.1631,0.0786
228.0,-0.9404,-6.0752,1.9293,-2.7648,5.8203,-0.6831
233.0,-0.9404,-6.0752,1.9293,-2.7648,5.8203,-0.6831
238.0,-0.9404,-6.0752,1.9293,-2.7648,5.8203,-0.6831
244.0,-0.9404,-6.0752,1.9293,-2.7648,5.8203,-0.6831
248.0,-2.267,-4.6261,0.2896,-2.7648,5.8203,-0.6831
253.0,-2.267,-4.6261,0.2896,-2.7648,5.8203,-0.6831
259.0,-2.267,-4.6261,0.2896,-2.7648,5.8203,-0.6831
263.0,-2.267,-4.6261,0.2896,-5.5046,5.623,-1.5389
268.0,-2.267,-4.6261,0.2896,-5.5046,5.623,-1.5389
273.0,-2.2575,-13.8451,3.5311,-5.5046,5.623,-1.5389
278.0,-2.2575,-13.8451,3.5311,-5.5046,5.623,-1.5389
283.0,-2.2575,-13.8451,3.5311,-5.5046,5.623,-1.5389
288.0,-2.2575,-13.8451,3.5311,-5.5046,5.623,-1.5389
293.0,-2.2575,-13.8451,3.5311,-5.8583,6.3524,-1.7594
298.0,-2.2575,-13.8451,3.5311,-5.8583,6.3524,-1.7594
303.0,-5.1262,-15.7995,3.2657,-5.8583,6.3524,-1.7594
308.0,-5.1262,-15.7995,3.2657,-5.8583,6.3524,-1.7594
313.0,-5.1262,-15.7995,3.2657,-5.8583,6.3524,-1.7594
318.0,-5.1262,-15.7995,3.2657,-5.8583,6.3524,-1.7594
323.0,-5.1262,-15.7995,3.2657,-6.1515,6.6792,-0.0844
328.0,-9.4796,-17.1246,2.1758,-6.1515,6.6792,-0.0844
333.0,-9.4796,-17.1246,2.1758,-6.1515,6.6792,-0.0844
338.0,-9.4796,-17.1246,2.1758,-6.1515,6.6792,-0.0844
343.0,-9.4796,-17.1246,2.1758,-6.1515,6.6792,-0.0844
348.0,-9.4796,-17.1246,2.1758,-6.1515,6.6792,-0.0844
353.0,-9.4796,-17.1246,2.1758,-6.8778,5.5228,1.031
358.0,-17.6213,-18.588,4.1898,-6.8778,5.5228,1.031
363.0,-17.6213,-18.588,4.1898,-6.8778,5.5228,1.031
368.0,-17.6213,-18.588,4.1898,-6.8778,5.5228,1.031
373.0,-17.6213,-18.588,4.1898,-6.8778,5.5228,1.031
378.0,-17.6213,-18.588,4.1898,-6.8778,5.5228,1.031
383.0,-23.6845,-18.0399,4.967,-6.8778,5.5228,1.031
388.0,-23.6845,-18.0399,4.967,-6.8778,5.5228,1.031
393.0,-23.6845,-18.0399,4.967,-2.6653,1.8014,2.5759
398.0,-23.6845,-18.0399,4.967,-2.6653,1.8014,2.5759
403.0,-23.6845,-18.0399,4.967,-2.6653,1.8014,2.5759
408.0,-23.6845,-18.0399,4.967,-2.6653,1.8014,2.5759
413.0,-25.6911,-10.003,1.844,-2.6653,1.8014,2.5759
418.0,-25.6911,-10.003,1.844,-2.6653,1.8014,2.5759
423.0,-25.6911,-10.003,1.844,-0.9347,-4.4661,2.6706
429.0,-25.6911,-10.003,1.844,-0.9347,-4.4661,2.6706
433.0,-25.6911,-10.003,1.844,-0.9347,-4.4661,2.6706
439.0,-16.9077,-6.5995,-3.3358,-0.9347,-4.4661,2.6706
443.0,-16.9077,-6.5995,-3.3358,-0.9347,-4.4661,2.6706
448.0,-16.9077,-6.5995,-3.3358,-0.9347,-4.4661,2.6706
453.0,-16.9077,-6.5995,-3.3358,-0.9347,-4.4661,2.6706
458.0,-16.9077,-6.5995,-3.3358,-1.1992,-5.6945,0.7567
463.0,-16.9077,-6.5995,-3.3358,-1.1992,-5.6945,0.7567
468.0,-14.4365,-5.9703,1.5692,-1.1992,-5.6945,0.7567
473.0,-14.4365,-5.9703,1.5692,-1.1992,-5.6945,0.7567
478.0,-14.4365,-5.9703,1.5692,-1.1992,-5.6945,0.7567
484.0,-14.4365,-5.9703,1.5692,-0.011,-3.6616,0.7427
489.0,-14.4365,-5.9703,1.5692,-0.011,-3.6616,0.7427
493.0,-14.4365,-5.9703,1.5692,-0.011,-3.6616,0.7427
498.0,-10.3034,-4.2543,2.735,-0.011,-3.6616,0.7427
506.0,-10.3034,-4.2543,2.735,-0.011,-3.6616,0.7427
508.0,-10.3034,-4.2543,2.735,-0.011,-3.6616,0.7427
513.0,-10.3034,-4.2543,2.735,-0.011,-3.6616,0.7427
519.0,-10.3034,-4.2543,2.735,0.2406,-2.4661,1.0518
524.0,-10.3034,-4.2543,2.735,0.2406,-2.4661,1.0518
528.0,-10.3034,-4.2543,2.735,0.2406,-2.4661,1.0518
533.0,-10.3034,-4.2543,2.735,0.2406,-2.4661,1.0518
538.0,-10.3034,-4.2543,2.735,0.2406,-2.4661,1.0518
543.0,-10.3034,-4.2543,2.735,0.2406,-2.4661,1.0518
548.0,-10.6913,-5.7463,8.0664,0.4153,-0.4234,1.4079
553.0,-10.6913,-5.7463,8.0664,0.4153,-0.4234,1.4079
558.0,-10.6913,-5.7463,8.0664,0.4153,-0.4234,1.4079
567.0,-10.6913,-5.7463,8.0664,0.4153,-0.4234,1.4079
568.0,-10.6913,-5.7463,8.0664,0.4153,-0.4234,1.4079
573.0,-10.6913,-5.7463,8.0664,0.4153,-0.4234,1.4079
578.0,-6.5486,-4.5546,6.9053,-1.7258,3.05,-2.6648
583.0,-6.5486,-4.5546,6.9053,-1.7258,3.05,-2.6648
588.0,-6.5486,-4.5546,6.9053,-1.7258,3.05,-2.6648
593.0,-6.5486,-4.5546,6.9053,-1.7258,3.05,-2.6648
598.0,-6.5486,-4.5546,6.9053,-1.7258,3.05,-2.6648
603.0,-8.6271,-9.655,0.3654,-1.7258,3.05,-2.6648
608.0,-8.6271,-9.655,0.3654,-1.7258,3.05,-2.6648
613.0,-8.6271,-9.655,0.3654,-0.9249,2.1154,-0.6953
618.0,-8.6271,-9.655,0.3654,-0.9249,2.1154,-0.6953
623.0,-8.6271,-9.655,0.3654,-0.9249,2.1154,-0.6953
629.0,1.253,-8.8542,1.1332,-0.9249,2.1154,-0.6953
633.0,1.253,-8.8542,1.1332,-0.9249,2.1154,-0.6953
639.0,1.253,-8.8542,1.1332,-0.9249,2.1154,-0.6953
643.0,1.253,-8.8542,1.1332,-1.0391,2.6744,1.7164
648.0,1.253,-8.8542,1.1332,-1.0391,2.6744,1.7164
662.0,0.4389,-8.3537,3.3179,-1.0391,2.6744,1.7164
662.0,0.4389,-8.3537,3.3179,-1.0391,2.6744,1.7164
663.0,0.4389,-8.3537,3.3179,-1.0391,2.6744,1.7164
668.0,0.4389,-8.3537,3.3179,-1.0391,2.6744,1.7164
674.0,0.4389,-8.3537,3.3179,0.1111,4.0018,2.8208
678.0,0.4389,-8.3537,3.3179,0.1111,4.0018,2.8208
683.0,0.4389,-8.3537,3.3179,0.1111,4.0018,2.8208
688.0,-3.8331,-7.4003,4.5879,0.1111,4.0018,2.8208
693.0,-3.8331,-7.4003,4.5879,0.1111,4.0018,2.8208
698.0,-3.8331,-7.4003,4.5879,0.1111,4.0018,2.8208
703.0,-3.8331,-7.4003,4.5879,0.1111,4.0018,2.8208
708.0,-3.8331,-7.4003,4.5879,0.6903,3.901,1.4989
714.0,-3.3015,-6.7759,3.8629,0.6903,3.901,1.4989
718.0,-3.3015,-6.7759,3.8629,0.6903,3.901,1.4989
723.0,-3.3015,-6.7759,3.8629,0.6903,3.901,1.4989
728.0,-3.3015,-6.7759,3.8629,0.6903,3.901,1.4989
733.0,-3.3015,-6.7759,3.8629,0.6903,3.901,1.4989
738.0,0.0797,-6.6377,1.6497,-1.3507,3.1796,0.9534
743.0,0.0797,-6.6377,1.6497,-1.3507,3.1796,0.9534
748.0,0.0797,-6.6377,1.6497,-1.3507,3.1796,0.9534
753.0,0.0797,-6.6377,1.6497,-1.3507,3.1796,0.9534
758.0,0.0797,-6.6377,1.6497,-1.3507,3.1796,0.9534
763.0,0.0797,-6.6377,1.6497,-1.3507,3.1796,0.9534
768.0,-3.0812,-6.7616,-0.5492,-1.8791,2.6151,0.009
773.0,-3.0812,-6.7616,-0.5492,-1.8791,2.6151,0.009
778.0,-3.0812,-6.7616,-0.5492,-1.8791,2.6151,0.009
784.0,-3.0812,-6.7616,-0.5492,-1.8791,2.6151,0.009
788.0,-3.0812,-6.7616,-0.5492,-1.8791,2.6151,0.009
793.0,-5.0017,-9.3309,-0.9046,-1.8791,2.6151,0.009
799.0,-5.0017,-9.3309,-0.9046,-0.7105,1.8265,-0.1168
803.0,-5.0017,-9.3309,-0.9046,-0.7105,1.8265,-0.1168
809.0,-5.0017,-9.3309,-0.9046,-0.7105,1.8265,-0.1168
813.0,-5.0017,-9.3309,-0.9046,-0.7105,1.8265,-0.1168
818.0,-5.0017,-9.3309,-0.9046,-0.7105,1.8265,-0.1168
823.0,-5.9116,-8.6302,-1.3027,-0.7105,1.8265,-0.1168
829.0,-5.9116,-8.6302,-1.3027,-0.226,1.2761,0.6407
833.0,-5.9116,-8.6302,-1.3027,-0.226,1.2761,0.6407
838.0,-5.9116,-8.6302,-1.3027,-0.226,1.2761,0.6407
843.0,-5.9116,-8.6302,-1.3027,-0.226,1.2761,0.6407
848.0,-0.6291,-8.9543,-0.2554,-0.226,1.2761,0.6407
853.0,-0.6291,-8.9543,-0.2554,-0.226,1.2761,0.6407
859.0,-0.6291,-8.9543,-0.2554,-2.3897,0.3201,0.841
869.0,-0.6291,-8.9543,-0.2554,-2.3897,0.3201,0.841
870.0,-0.6291,-8.9543,-0.2554,-2.3897,0.3201,0.841
874.0,-1.7163,-7.6816,-0.7151,-2.3897,0.3201,0.841
878.0,-1.7163,-7.6816,-0.7151,-2.3897,0.3201,0.841
883.0,-1.7163,-7.6816,-0.7151,-2.3897,0.3201,0.841
888.0,-1.7163,-7.6816,-0.7151,-2.2309,0.0159,0.5618
893.0,-1.7163,-7.6816,-0.7151,-2.2309,0.0159,0.5618
898.0,-1.7163,-7.6816,-0.7151,-2.2309,0.0159,0.5618
904.0,-3.0668,-9.4739,-0.8099,-2.2309,0.0159,0.5618
908.0,-3.0668,-9.4739,-0.8099,-2.2309,0.0159,0.5618
913.0,-3.0668,-9.4739,-0.8099,-2.2309,0.0159,0.5618
919.0,-3.0668,-9.4739,-0.8099,-1.2902,-0.1222,0.174
923.0,-3.0668,-9.4739,-0.8099,-1.2902,-0.1222,0.174
928.0,-3.0668,-9.4739,-0.8099,-1.2902,-0.1222,0.174
933.0,-3.0668,-9.4739,-0.8099,-1.2902,-0.1222,0.174
938.0,-2.3772,-13.7211,-0.6914,-1.2902,-0.1222,0.174
944.0,-2.3772,-13.7211,-0.6914,-1.2902,-0.1222,0.174
956.0,-2.3772,-13.7211,-0.6914,-1.2902,-0.1222,0.174
956.0,-2.3772,-13.7211,-0.6914,-1.2902,-0.1222,0.174
959.0,-2.3772,-13.7211,-0.6914,-1.2902,-0.1222,0.174
963.0,-2.3772,-13.7211,-0.6914,-1.2902,-0.1222,0.174
969.0,-2.3772,-13.7211,-0.6914,-1.2902,-0.1222,0.174
978.0,-2.631,-15.5421,-0.407,-0.8748,-1.2309,0.1629
978.0,-2.631,-15.5421,-0.407,-0.8748,-1.2309,0.1629
983.0,-2.631,-15.5421,-0.407,-0.8748,-1.2309,0.1629
988.0,-2.631,-15.5421,-0.407,-0.8748,-1.2309,0.1629
993.0,-2.631,-15.5421,-0.407,-0.8748,-1.2309,0.1629
998.0,-2.631,-15.5421,-0.407,-0.8748,-1.2309,0.1629
1003.0,-2.631,-15.5421,-0.407,-0.8748,-1.2309,0.1629
1008.0,-2.631,-15.5421,-0.407,-0.8748,-1.2309,0.1629
1013.0,-2.631,-15.5421,-0.407,-0.8748,-1.2309,0.1629
1018.0,-2.631,-15.5421,-0.407,-0.8748,-1.2309,0.1629
1023.0,-5.3274,-12.6772,0.555,2.78,-4.0996,-0.4766
1028.0,-5.3274,-12.6772,0.555,2.78,-4.0996,-0.4766
1033.0,-5.3274,-12.6772,0.555,2.78,-4.0996,-0.4766
1038.0,-5.3274,-12.6772,0.555,2.78,-4.0996,-0.4766
1043.0,-5.3274,-12.6772,0.555,2.78,-4.0996,-0.4766
1048.0,1.8421,-16.1093,9.7345,2.78,-4.0996,-0.4766
1053.0,1.8421,-16.1093,9.7345,5.3402,-1.5223,0.3279
1058.0,1.8421,-16.1093,9.7345,5.3402,-1.5223,0.3279
1063.0,1.8421,-16.1093,9.7345,5.3402,-1.5223,0.3279
1068.0,1.8421,-16.1093,9.7345,5.3402,-1.5223,0.3279
1073.0,1.8421,-16.1093,9.7345,5.3402,-1.5223,0.3279
1078.0,-2.6694,-4.9597,6.4788,5.3402,-1.5223,0.3279
1083.0,-2.6694,-4.9597,6.4788,1.2327,-0.953,-0.9623
1088.0,-2.6694,-4.9597,6.4788,1.2327,-0.953,-0.9623
1093.0,-2.6694,-4.9597,6.4788,1.2327,-0.953,-0.9623
1098.0,-2.6694,-4.9597,6.4788,1.2327,-0.953,-0.9623
1103.0,-2.1856,-5.7177,3.0146,1.2327,-0.953,-0.9623
1109.0,-2.1856,-5.7177,3.0146,1.2327,-0.953,-0.9623
1113.0,-2.1856,-5.7177,3.0146,-0.0141,-1.7972,-1.7106
1118.0,-2.1856,-5.7177,3.0146,-0.0141,-1.7972,-1.7106
1123.0,-2.1856,-5.7177,3.0146,-0.0141,-1.7972,-1.7106
1128.0,-2.1856,-5.7177,3.0146,-0.0141,-1.7972,-1.7106
1133.0,-2.564,-6.1896,2.3179,-0.0141,-1.7972,-1.7106
1138.0,-2.564,-6.1896,2.3179,-0.0141,-1.7972,-1.7106
1143.0,-2.564,-6.1896,2.3179,1.642,0.0189,-1.4565
1148.0,-2.564,-6.1896,2.3179,1.642,0.0189,-1.4565
1153.0,-2.564,-6.1896,2.3179,1.642,0.0189,-1.4565
1158.0,1.0567,-5.9798,0.9436,1.642,0.0189,-1.4565
1163.0,1.0567,-5.9798,0.9436,1.642,0.0189,-1.4565
1169.0,1.0567,-5.9798,0.9436,1.642,0.0189,-1.4565
1173.0,1.0567,-5.9798,0.9436,2.0708,2.0262,-1.2188
1178.0,1.0567,-5.9798,0.9436,2.0708,2.0262,-1.2188
1183.0,-0.4711,-7.9914,1.7871,2.0708,2.0262,-1.2188
1189.0,-0.4711,-7.9914,1.7871,2.0708,2.0262,-1.2188
1193.0,-0.4711,-7.9914,1.7871,2.0708,2.0262,-1.2188
1198.0,-0.4711,-7.9914,1.7871,2.0708,2.0262,-1.2188
1203.0,-0.4711,-7.9914,1.7871,0.4715,2.0507,-0.5707
1208.0,-0.4711,-7.9914,1.7871,0.4715,2.0507,-0.5707
1213.0,0.0509,-8.3442,2.5122,0.4715,2.0507,-0.5707
1219.0,0.0509,-8.3442,2.5122,0.4715,2.0507,-0.5707
1223.0,0.0509,-8.3442,2.5122,0.4715,2.0507,-0.5707
1229.0,0.0509,-8.3442,2.5122,0.4715,2.0507,-0.5707
1233.0,0.0509,-8.3442,2.5122,0.4715,2.0507,-0.5707
1238.0,-0.5142,-8.7255,0.8867,-0.5388,3.3469,0.009
1243.0,-0.5142,-8.7255,0.8867,-0.5388,3.3469,0.009
1248.0,-0.5142,-8.7255,0.8867,-0.5388,3.3469,0.009
1253.0,-0.5142,-8.7255,0.8867,-0.5388,3.3469,0.009
1258.0,-0.5142,-8.7255,0.8867,-0.5388,3.3469,0.009
1263.0,-4.7191,-10.8896,-1.1842,-0.5388,3.3469,0.009
1269.0,-4.7191,-10.8896,-1.1842,-0.6598,5.9425,-1.0814
1273.0,-4.7191,-10.8896,-1.1842,-0.6598,5.9425,-1.0814
1278.0,-4.7191,-10.8896,-1.1842,-0.6598,5.9425,-1.0814
1283.0,-4.7191,-10.8896,-1.1842,-0.6598,5.9425,-1.0814
1288.0,-4.7191,-10.8896,-1.1842,-0.6598,5.9425,-1.0814
1294.0,-2.813,-8.5968,-3.7718,-0.6598,5.9425,-1.0814
1298.0,-2.813,-8.5968,-3.7718,-1.22,3.2333,0.3267
1304.0,-2.813,-8.5968,-3.7718,-1.22,3.2333,0.3267
1308.0,-2.813,-8.5968,-3.7718,-1.22,3.2333,0.3267
1313.0,-2.813,-8.5968,-3.7718,-1.22,3.2333,0.3267
1318.0,-12.8848,-12.9251,-13.629,-1.22,3.2333,0.3267
1323.0,-12.8848,-12.9251,-13.629,-1.22,3.2333,0.3267
1328.0,-12.8848,-12.9251,-13.629,0.3707,2.4147,-0.4516
1333.0,-12.8848,-12.9251,-13.629,0.3707,2.4147,-0.4516
1339.0,-12.8848,-12.9251,-13.629,0.3707,2.4147,-0.4516
1343.0,-9.5467,-11.1518,-3.2505,0.3707,2.4147,-0.4516
1348.0,-9.5467,-11.1518,-3.2505,0.3707,2.4147,-0.4516
1353.0,-9.5467,-11.1518,-3.2505,0.3707,2.4147,-0.4516
1358.0,-9.5467,-11.1518,-3.2505,0.174,-0.5632,-2.4723
1363.0,-9.5467,-11.1518,-3.2505,0.174,-0.5632,-2.4723
1368.0,-9.5467,-11.1518,-3.2505,0.174,-0.5632,-2.4723
1373.0,-7.3293,-6.938,1.0858,0.174,-0.5632,-2.4723
1378.0,-7.3293,-6.938,1.0858,0.174,-0.5632,-2.4723
1383.0,-7.3293,-6.938,1.0858,0.174,-0.5632,-2.4723
1388.0,-7.3293,-6.938,1.0858,-0.8449,0.7452,-0.7112
1393.0,-7.3293,-6.938,1.0858,-0.8449,0.7452,-0.7112
1398.0,-5.7392,-8.7065,-2.3501,-0.8449,0.7452,-0.7112
1403.0,-5.7392,-8.7065,-2.3501,-0.8449,0.7452,-0.7112
1408.0,-5.7392,-8.7065,-2.3501,-0.8449,0.7452,-0.7112
1414.0,-5.7392,-8.7065,-2.3501,-0.8449,0.7452,-0.7112
1418.0,-5.7392,-8.7065,-2.3501,-1.0025,0.9957,-0.9555
1423.0,-5.7392,-8.7065,-2.3501,-1.0025,0.9957,-0.9555
1428.0,-3.7661,-8.2345,-0.7293,-1.0025,0.9957,-0.9555
1434.0,-3.7661,-8.2345,-0.7293,-1.0025,0.9957,-0.9555
1438.0,-3.7661,-8.2345,-0.7293,-1.0025,0.9957,-0.9555
1443.0,-3.7661,-8.2345,-0.7293,-1.0025,0.9957,-0.9555
1448.0,-3.7661,-8.2345,-0.7293,-1.0025,0.9957,-0.9555
1454.0,-3.8858,-6.814,-2.7055,-0.7581,1.2211,-0.3086
1459.0,-3.8858,-6.814,-2.7055,-0.7581,1.2211,-0.3086
1464.0,-3.8858,-6.814,-2.7055,-0.7581,1.2211,-0.3086
1468.0,-3.8858,-6.814,-2.7055,-0.7581,1.2211,-0.3086
1474.0,-3.8858,-6.814,-2.7055,-0.7581,1.2211,-0.3086
1478.0,-4.427,-6.2325,-1.9188,-0.7581,1.2211,-0.3086
1483.0,-4.427,-6.2325,-1.9188,-0.7392,1.5815,0.0817
1488.0,-4.427,-6.2325,-1.9188,-0.7392,1.5815,0.0817
1493.0,-4.427,-6.2325,-1.9188,-0.7392,1.5815,0.0817
1498.0,-4.427,-6.2325,-1.9188,-0.7392,1.5815,0.0817
1504.0,-3.6176,-5.7177,-3.0941,-0.7392,1.5815,0.0817
1508.0,-3.6176,-5.7177,-3.0941,-0.7392,1.5815,0.0817
1513.0,-3.6176,-5.7177,-3.0941,-0.8229,1.2419,0.2228
1519.0,-3.6176,-5.7177,-3.0941,-0.8229,1.2419,0.2228
1523.0,-3.6176,-5.7177,-3.0941,-0.8229,1.2419,0.2228
1528.0,-3.6176,-5.7177,-3.0941,-0.8229,1.2419,0.2228
1533.0,-2.7747,-5.5937,-2.0894,-0.8229,1.2419,0.2228
1538.0,-2.7747,-5.5937,-2.0894,-0.8229,1.2419,0.2228
1544.0,-2.7747,-5.5937,-2.0894,-0.8321,0.6499,0.9339
1548.0,-2.7747,-5.5937,-2.0894,-0.8321,0.6499,0.9339
1554.0,-2.7747,-5.5937,-2.0894,-0.8321,0.6499,0.9339
1558.0,-2.2623,-4.1351,-2.8713,-0.8321,0.6499,0.9339
1563.0,-2.2623,-4.1351,-2.8713,-0.8321,0.6499,0.9339
1568.0,-2.2623,-4.1351,-2.8713,-0.8321,0.6499,0.9339
1574.0,-2.2623,-4.1351,-2.8713,-1.3586,0.5436,1.2619
1579.0,-2.2623,-4.1351,-2.8713,-1.3586,0.5436,1.2619
1583.0,-2.2623,-4.1351,-2.8713,-1.3586,0.5436,1.2619
1588.0,-3.1387,-5.7606,-5.4162,-1.3586,0.5436,1.2619
1593.0,-3.1387,-5.7606,-5.4162,-1.3586,0.5436,1.2619
1599.0,-3.1387,-5.7606,-5.4162,-1.3586,0.5436,1.2619
1604.0,-3.1387,-5.7606,-5.4162,-1.3586,0.5436,1.2619
1608.0,-3.1387,-5.7606,-5.4162,-1.8058,-0.2407,0.3859
1613.0,-4.8197,-6.3803,-3.3453,-1.8058,-0.2407,0.3859
1619.0,-4.8197,-6.3803,-3.3453,-1.8058,-0.2407,0.3859
1623.0,-4.8197,-6.3803,-3.3453,-1.8058,-0.2407,0.3859
1628.0,-4.8197,-6.3803,-3.3453,-1.8058,-0.2407,0.3859
1633.0,-4.8197,-6.3803,-3.3453,-1.8058,-0.2407,0.3859
1639.0,-4.8197,-6.3803,-3.3453,-0.9328,-0.1527,0.7494
1643.0,-4.2833,-4.6451,-2.7529,-0.9328,-0.1527,0.7494
1648.0,-4.2833,-4.6451,-2.7529,-0.9328,-0.1527,0.7494
1654.0,-4.2833,-4.6451,-2.7529,-0.9328,-0.1527,0.7494
1658.0,-4.2833,-4.6451,-2.7529,-0.9328,-0.1527,0.7494
1663.0,-4.2833,-4.6451,-2.7529,-0.9328,-0.1527,0.7494
1669.0,-2.0563,-3.8062,-2.8998,-0.4979,-0.7862,1.7158
1673.0,-2.0563,-3.8062,-2.8998,-0.4979,-0.7862,1.7158
1678.0,-2.0563,-3.8062,-2.8998,-0.4979,-0.7862,1.7158
1683.0,-2.0563,-3.8062,-2.8998,-0.4979,-0.7862,1.7158
1689.0,-2.0563,-3.8062,-2.8998,-0.4979,-0.7862,1.7158
1693.0,-2.0563,-3.8062,-2.8998,-0.4979,-0.7862,1.7158
1698.0,-1.7594,-8.5825,-12.8897,-0.4979,-0.7862,1.7158
1703.0,-1.7594,-8.5825,-12.8897,-0.9298,-3.4117,-2.5878
1708.0,-1.7594,-8.5825,-12.8897,-0.9298,-3.4117,-2.5878
1713.0,-1.7594,-8.5825,-12.8897,-0.9298,-3.4117,-2.5878
1718.0,-1.7594,-8.5825,-12.8897,-0.9298,-3.4117,-2.5878
1723.0,-1.7594,-8.5825,-12.8897,-0.9298,-3.4117,-2.5878
1729.0,-2.5927,-10.7848,-0.9947,-0.9298,-3.4117,-2.5878
1733.0,-2.5927,-10.7848,-0.9947,-1.5089,-3.0275,-0.1926
1738.0,-2.5927,-10.7848,-0.9947,-1.5089,-3.0275,-0.1926
1743.0,-2.5927,-10.7848,-0.9947,-1.5089,-3.0275,-0.1926
1748.0,-2.5927,-10.7848,-0.9947,-1.5089,-3.0275,-0.1926
1753.0,-3.5697,-19.4508,2.1236,-1.5089,-3.0275,-0.1926
1758.0,-3.5697,-19.4508,2.1236,-1.5089,-3.0275,-0.1926
1764.0,-3.5697,-19.4508,2.1236,-1.5089,-3.0275,-0.1926
1769.0,-3.5697,-19.4508,2.1236,-2.0935,-1.7025,0.9424
1774.0,-3.5697,-19.4508,2.1236,-2.0935,-1.7025,0.9424
1778.0,-0.9787,-26.2149,-3.3074,-2.0935,-1.7025,0.9424
1783.0,-0.9787,-26.2149,-3.3074,-2.0935,-1.7025,0.9424
1788.0,-0.9787,-26.2149,-3.3074,-2.0935,-1.7025,0.9424
1793.0,-0.9787,-26.2149,-3.3074,-2.0935,-1.7025,0.9424
1798.0,-0.9787,-26.2149,-3.3074,-4.5119,2.7489,0.7793
1803.0,-0.9787,-26.2149,-3.3074,-4.5119,2.7489,0.7793
1808.0,2.7233,-13.0061,3.8012,-4.5119,2.7489,0.7793
1813.0,2.7233,-13.0061,3.8012,-4.5119,2.7489,0.7793
1818.0,2.7233,-13.0061,3.8012,-4.5119,2.7489,0.7793
1823.0,2.7233,-13.0061,3.8012,-4.5119,2.7489,0.7793
1829.0,2.7233,-13.0061,3.8012,-4.5119,2.7489,0.7793
1833.0,2.6515,-6.2611,-2.3548,-3.4343,3.7153,0.5319
1838.0,2.6515,-6.2611,-2.3548,-3.4343,3.7153,0.5319
1843.0,2.6515,-6.2611,-2.3548,-3.4343,3.7153,0.5319
1849.0,2.6515,-6.2611,-2.3548,-3.4343,3.7153,0.5319
1853.0,2.6515,-6.2611,-2.3548,-3.4343,3.7153,0.5319
1858.0,2.6323,-4.3401,0.7303,-3.4343,3.7153,0.5319
1863.0,2.6323,-4.3401,0.7303,-1.8601,3.3048,-0.8376
1868.0,2.6323,-4.3401,0.7303,-1.8601,3.3048,-0.8376
1873.0,2.6323,-4.3401,0.7303,-1.8601,3.3048,-0.8376
1878.0,2.6323,-4.3401,0.7303,-1.8601,3.3048,-0.8376
1883.0,2.6323,-4.3401,0.7303,-1.8601,3.3048,-0.8376
1888.0,4.2655,-6.2325,1.9483,-1.8601,3.3048,-0.8376
1893.0,4.2655,-6.2325,1.9483,-1.8601,3.3048,-0.8376
1898.0,4.2655,-6.2325,1.9483,-0.562,3.2755,-0.418
1903.0,4.2655,-6.2325,1.9483,-0.562,3.2755,-0.418
1909.0,4.2655,-6.2325,1.9483,-0.562,3.2755,-0.418
1913.0,5.4436,-9.288,1.8393,-0.562,3.2755,-0.418
1918.0,5.4436,-9.288,1.8393,-0.562,3.2755,-0.418
1924.0,5.4436,-9.288,1.8393,-0.562,3.2755,-0.418
1928.0,5.4436,-9.288,1.8393,-0.1808,2.3213,0.5857
1933.0,5.4436,-9.288,1.8393,-0.1808,2.3213,0.5857
1938.0,5.9321,-10.5226,0.7777,-0.1808,2.3213,0.5857
1944.0,5.9321,-10.5226,0.7777,-0.1808,2.3213,0.5857
1948.0,5.9321,-10.5226,0.7777,-0.1808,2.3213,0.5857
1953.0,5.9321,-10.5226,0.7777,-0.1808,2.3213,0.5857
1958.0,5.9321,-10.5226,0.7777,-0.1808,2.3213,0.5857
1963.0,5.9321,-10.5226,0.7777,-0.1808,2.3213,0.5857
1969.0,6.7367,-8.8828,-0.4781,-0.1143,0.3402,0.8819
1973.0,6.7367,-8.8828,-0.4781,-0.1143,0.3402,0.8819
1978.0,6.7367,-8.8828,-0.4781,-0.1143,0.3402,0.8819
1983.0,6.7367,-8.8828,-0.4781,-0.1143,0.3402,0.8819
1988.0,6.7367,-8.8828,-0.4781,-0.1143,0.3402,0.8819
1993.0,5.4819,-9.431,-1.1179,-0.1143,0.3402,0.8819
1998.0,5.4819,-9.431,-1.1179,-0.57,-1.0055,-0.8798
2003.0,5.4819,-9.431,-1.1179,-0.57,-1.0055,-0.8798
2008.0,5.4819,-9.431,-1.1179,-0.57,-1.0055,-0.8798
2013.0,5.4819,-9.431,-1.1179,-0.57,-1.0055,-0.8798
2018.0,5.4819,-9.431,-1.1179,-0.57,-1.0055,-0.8798
2023.0,2.7952,-9.8648,-1.5349,-0.57,-1.0055,-0.8798
2029.0,2.7952,-9.8648,-1.5349,-0.0202,1.3738,0.4556
2033.0,2.7952,-9.8648,-1.5349,-0.0202,1.3738,0.4556
2038.0,2.7952,-9.8648,-1.5349,-0.0202,1.3738,0.4556
2044.0,2.7952,-9.8648,-1.5349,-0.0202,1.3738,0.4556
2048.0,3.5854,-9.2975,-0.3407,-0.0202,1.3738,0.4556
2054.0,3.5854,-9.2975,-0.3407,-0.0202,1.3738,0.4556
2058.0,3.5854,-9.2975,-0.3407,0.2327,-0.3403,0.6938
2064.0,3.5854,-9.2975,-0.3407,0.2327,-0.3403,0.6938
2069.0,3.5854,-9.2975,-0.3407,0.2327,-0.3403,0.6938
2074.0,3.5088,-9.6932,1.7066,0.2327,-0.3403,0.6938
2078.0,3.5088,-9.6932,1.7066,0.2327,-0.3403,0.6938
2083.0,3.5088,-9.6932,1.7066,0.2327,-0.3403,0.6938
2088.0,3.5088,-9.6932,1.7066,0.2327,-0.3403,0.6938
2093.0,3.5088,-9.6932,1.7066,0.1832,-0.7752,0.6572
2098.0,3.5088,-9.6932,1.7066,0.1832,-0.7752,0.6572
2103.0,3.5088,-9.6932,1.7066,0.1832,-0.7752,0.6572
2108.0,3.5088,-9.6932,1.7066,0.1832,-0.7752,0.6572
2114.0,3.5088,-9.6932,1.7066,0.1832,-0.7752,0.6572
2118.0,2.843,-9.4739,2.0904,0.1832,-0.7752,0.6572
2123.0,2.843,-9.4739,2.0904,0.1472,-0.6658,0.5625
2128.0,2.843,-9.4739,2.0904,0.1472,-0.6658,0.5625
2133.0,2.843,-9.4739,2.0904,0.1472,-0.6658,0.5625
2138.0,2.843,-9.4739,2.0904,0.1472,-0.6658,0.5625
2144.0,2.2013,-9.3309,1.8014,0.1472,-0.6658,0.5625
2148.0,2.2013,-9.3309,1.8014,0.1472,-0.6658,0.5625
2153.0,2.2013,-9.3309,1.8014,0.1472,-0.6658,0.5625
2158.0,2.2013,-9.3309,1.8014,-0.0354,0.0531,0.1556
2163.0,2.2013,-9.3309,1.8014,-0.0354,0.0531,0.1556
2169.0,2.2013,-9.3309,1.8014,-0.0354,0.0531,0.1556
2173.0,2.3306,-8.9972,1.1948,-0.0354,0.0531,0.1556
2178.0,2.3306,-8.9972,1.1948,-0.0354,0.0531,0.1556
2184.0,2.3306,-8.9972,1.1948,-0.0354,0.0531,0.1556
2188.0,2.3306,-8.9972,1.1948,-0.0171,0.8564,-0.0619
2194.0,2.3306,-8.9972,1.1948,-0.0171,0.8564,-0.0619
2198.0,3.844,-9.0973,-0.1274,-0.0171,0.8564,-0.0619
2204.0,3.844,-9.0973,-0.1274,-0.0171,0.8564,-0.0619
2208.0,3.844,-9.0973,-0.1274,-0.0171,0.8564,-0.0619
2213.0,3.844,-9.0973,-0.1274,-0.0171,0.8564,-0.0619
2219.0,3.844,-9.0973,-0.1274,-0.0532,1.697,-0.3881
2223.0,3.844,-9.0973,-0.1274,-0.0532,1.697,-0.3881
2228.0,3.9398,-9.3786,-1.7956,-0.0532,1.697,-0.3881
2233.0,3.9398,-9.3786,-1.7956,-0.0532,1.697,-0.3881
2238.0,3.9398,-9.3786,-1.7956,-0.0532,1.697,-0.3881
2243.0,3.9398,-9.3786,-1.7956,-0.0532,1.697,-0.3881
2249.0,3.9398,-9.3786,-1.7956,0.0549,0.9945,-0.3294
2253.0,3.0011,-9.4405,5.0E-4,0.0549,0.9945,-0.3294
2258.0,3.0011,-9.4405,5.0E-4,0.0549,0.9945,-0.3294
2263.0,3.0011,-9.4405,5.0E-4,0.0549,0.9945,-0.3294
2268.0,3.0011,-9.4405,5.0E-4,0.0549,0.9945,-0.3294
2273.0,3.0011,-9.4405,5.0E-4,0.0549,0.9945,-0.3294
2279.0,3.0011,-9.4405,5.0E-4,0.0831,0.2553,0.1666
2283.0,2.9101,-9.3976,0.7161,0.0831,0.2553,0.1666
2288.0,2.9101,-9.3976,0.7161,0.0831,0.2553,0.1666
2293.0,2.9101,-9.3976,0.7161,0.0831,0.2553,0.1666
2298.0,2.9101,-9.3976,0.7161,0.0831,0.2553,0.1666
2304.0,2.9101,-9.3976,0.7161,0.0831,0.2553,0.1666
2308.0,2.8718,-8.8256,-0.0042,0.0831,0.2553,0.1666
2313.0,2.8718,-8.8256,-0.0042,0.0855,0.1093,0.2265
2318.0,2.8718,-8.8256,-0.0042,0.0855,0.1093,0.2265
2323.0,2.8718,-8.8256,-0.0042,0.0855,0.1093,0.2265
2328.0,2.8718,-8.8256,-0.0042,0.0855,0.1093,0.2265
2333.0,3.1112,-9.4072,-0.2033,0.0855,0.1093,0.2265
2338.0,3.1112,-9.4072,-0.2033,0.0855,0.1093,0.2265
2343.0,3.1112,-9.4072,-0.2033,0.044,0.675,-0.024
2349.0,3.1112,-9.4072,-0.2033,0.044,0.675,-0.024
2353.0,3.1112,-9.4072,-0.2033,0.044,0.675,-0.024
2358.0,3.1112,-9.4072,-0.2033,0.044,0.675,-0.024
2364.0,3.1783,-9.2832,0.138,0.044,0.675,-0.024
2369.0,3.1783,-9.2832,0.138,0.044,0.675,-0.024
2374.0,3.1783,-9.2832,0.138,0.0421,0.8045,0.0279
2378.0,3.1783,-9.2832,0.138,0.0421,0.8045,0.0279
2383.0,3.1783,-9.2832,0.138,0.0421,0.8045,0.0279
2388.0,3.2932,-9.0211,0.0669,0.0421,0.8045,0.0279
2394.0,3.2932,-9.0211,0.0669,0.0421,0.8045,0.0279
2398.0,3.2932,-9.0211,0.0669,0.0421,0.8045,0.0279
2403.0,3.2932,-9.0211,0.0669,0.0354,0.4954,0.1257
2408.0,3.2932,-9.0211,0.0669,0.0354,0.4954,0.1257
2413.0,3.8823,-9.0306,-0.8667,0.0354,0.4954,0.1257
2418.0,3.8823,-9.0306,-0.8667,0.0354,0.4954,0.1257
2423.0,3.8823,-9.0306,-0.8667,0.0354,0.4954,0.1257
2429.0,3.8823,-9.0306,-0.8667,0.0354,0.4954,0.1257
2433.0,3.8823,-9.0306,-0.8667,0.0354,0.4954,0.1257
2438.0,3.6141,-9.1593,-1.279,0.0085,0.1704,0.1526
2443.0,3.6141,-9.1593,-1.279,0.0085,0.1704,0.1526
2448.0,3.6141,-9.1593,-1.279,0.0085,0.1704,0.1526
2453.0,3.6141,-9.1593,-1.279,0.0085,0.1704,0.1526
2458.0,3.6141,-9.1593,-1.279,0.0085,0.1704,0.1526
2463.0,3.6141,-9.1593,-1.279,0.0085,0.1704,0.1526
2468.0,3.1591,-9.1116,-0.3454,0.0055,-0.0684,0.2094
2473.0,3.1591,-9.1116,-0.3454,0.0055,-0.0684,0.2094
2478.0,3.1591,-9.1116,-0.3454,0.0055,-0.0684,0.2094
2483.0,3.1591,-9.1116,-0.3454,0.0055,-0.0684,0.2094
2489.0,3.1591,-9.1116,-0.3454,0.0055,-0.0684,0.2094
2494.0,3.1112,-8.9019,-0.734,0.0055,-0.0684,0.2094
2498.0,3.1112,-8.9019,-0.734,-0.041,-0.1802,0.1709
2503.0,3.1112,-8.9019,-0.734,-0.041,-0.1802,0.1709
2508.0,3.1112,-8.9019,-0.734,-0.041,-0.1802,0.1709
2513.0,3.1112,-8.9019,-0.734,-0.041,-0.1802,0.1709
2519.0,3.1112,-8.9019,-0.734,-0.041,-0.1802,0.1709
2523.0,2.4791,-9.5406,-1.5823,-0.041,-0.1802,0.1709
2528.0,2.4791,-9.5406,-1.5823,0.0055,-0.168,0.0921
2533.0,2.4791,-9.5406,-1.5823,0.0055,-0.168,0.0921
2538.0,2.4791,-9.5406,-1.5823,0.0055,-0.168,0.0921
2543.0,2.4791,-9.5406,-1.5823,0.0055,-0.168,0.0921
2548.0,2.4791,-9.5406,-1.5823,0.0055,-0.168,0.0921
2553.0,2.3833,-8.9639,-0.6629,0.0055,-0.168,0.0921
2558.0,2.3833,-8.9639,-0.6629,0.0269,-0.2932,0.0957
2563.0,2.3833,-8.9639,-0.6629,0.0269,-0.2932,0.0957
2568.0,2.3833,-8.9639,-0.6629,0.0269,-0.2932,0.0957
2573.0,2.3833,-8.9639,-0.6629,0.0269,-0.2932,0.0957
2578.0,3.0394,-8.163,-0.9094,0.0269,-0.2932,0.0957
2583.0,3.0394,-8.163,-0.9094,0.0269,-0.2932,0.0957
2588.0,3.0394,-8.163,-0.9094,0.0269,-0.2932,0.0957
2594.0,3.0394,-8.163,-0.9094,0.058,-0.4331,-0.1119
2599.0,3.0394,-8.163,-0.9094,0.058,-0.4331,-0.1119
2603.0,2.3162,-8.8638,-2.1178,0.058,-0.4331,-0.1119
2608.0,2.3162,-8.8638,-2.1178,0.058,-0.4331,-0.1119
2614.0,2.3162,-8.8638,-2.1178,0.058,-0.4331,-0.1119
2618.0,2.3162,-8.8638,-2.1178,0.058,-0.4331,-0.1119
2623.0,2.3162,-8.8638,-2.1178,0.1276,-1.0415,-0.1956
2628.0,2.3162,-8.8638,-2.1178,0.1276,-1.0415,-0.1956
2633.0,1.8756,-8.5873,-1.2222,0.1276,-1.0415,-0.1956
2638.0,1.8756,-8.5873,-1.2222,0.1276,-1.0415,-0.1956
2643.0,1.8756,-8.5873,-1.2222,0.1276,-1.0415,-0.1956
2648.0,1.8756,-8.5873,-1.2222,0.1276,-1.0415,-0.1956
2653.0,1.8756,-8.5873,-1.2222,0.1655,-1.5516,-0.4332
2658.0,1.5739,-6.7092,0.0526,0.1655,-1.5516,-0.4332
2663.0,1.5739,-6.7092,0.0526,0.1655,-1.5516,-0.4332
2668.0,1.5739,-6.7092,0.0526,0.1655,-1.5516,-0.4332
2673.0,1.5739,-6.7092,0.0526,0.1655,-1.5516,-0.4332
2678.0,1.5739,-6.7092,0.0526,0.1655,-1.5516,-0.4332
2683.0,1.5739,-6.7092,0.0526,0.24,-1.2413,-0.768
2688.0,0.027,-6.2849,-0.6819,0.24,-1.2413,-0.768
2693.0,0.027,-6.2849,-0.6819,0.24,-1.2413,-0.768
2699.0,0.027,-6.2849,-0.6819,0.24,-1.2413,-0.768
2703.0,0.027,-6.2849,-0.6819,0.24,-1.2413,-0.768
2708.0,0.027,-6.2849,-0.6819,0.24,-1.2413,-0.768
2713.0,0.9274,-9.064,-1.824,0.24,-1.2413,-0.768
2718.0,0.9274,-9.064,-1.824,0.3402,-0.4661,-1.0814
2723.0,0.9274,-9.064,-1.824,0.3402,-0.4661,-1.0814
2728.0,0.9274,-9.064,-1.824,0.3402,-0.4661,-1.0814
2733.0,0.9274,-9.064,-1.824,0.3402,-0.4661,-1.0814
2739.0,0.9274,-9.064,-1.824,0.3402,-0.4661,-1.0814
2743.0,3.3555,-7.7197,-0.3928,0.3402,-0.4661,-1.0814
2749.0,3.3555,-7.7197,-0.3928,-0.1161,0.35,-1.0924
2753.0,3.3555,-7.7197,-0.3928,-0.1161,0.35,-1.0924
2758.0,3.3555,-7.7197,-0.3928,-0.1161,0.35,-1.0924
2763.0,3.3555,-7.7197,-0.3928,-0.1161,0.35,-1.0924
2769.0,2.5796,-6.3803,1.3891,-0.1161,0.35,-1.0924
2773.0,2.5796,-6.3803,1.3891,-0.1161,0.35,-1.0924
2779.0,2.5796,-6.3803,1.3891,-0.1082,0.1784,-0.7454
2783.0,2.5796,-6.3803,1.3891,-0.1082,0.1784,-0.7454
2788.0,2.5796,-6.3803,1.3891,-0.1082,0.1784,-0.7454
2793.0,2.5796,-6.3803,1.3891,-0.1082,0.1784,-0.7454
2798.0,3.2166,-6.0275,-2.8808,-0.1082,0.1784,-0.7454
2803.0,3.2166,-6.0275,-2.8808,-0.1082,0.1784,-0.7454
2808.0,3.2166,-6.0275,-2.8808,-0.3739,0.6964,-0.7558
2813.0,3.2166,-6.0275,-2.8808,-0.3739,0.6964,-0.7558
2819.0,3.2166,-6.0275,-2.8808,-0.3739,0.6964,-0.7558
2823.0,3.0346,-8.7303,-5.6769,-0.3739,0.6964,-0.7558
2828.0,3.0346,-8.7303,-5.6769,-0.3739,0.6964,-0.7558
2833.0,3.0346,-8.7303,-5.6769,-0.3739,0.6964,-0.7558
2838.0,3.0346,-8.7303,-5.6769,-0.4393,-0.5027,-0.5988
2843.0,3.0346,-8.7303,-5.6769,-0.4393,-0.5027,-0.5988
2848.0,1.866,-9.5978,-3.3595,-0.4393,-0.5027,-0.5988
2853.0,1.866,-9.5978,-3.3595,-0.4393,-0.5027,-0.5988
2858.0,1.866,-9.5978,-3.3595,-0.4393,-0.5027,-0.5988
2863.0,1.866,-9.5978,-3.3595,-0.4393,-0.5027,-0.5988
2868.0,1.866,-9.5978,-3.3595,-0.1729,-1.474,-0.6208
2873.0,1.866,-9.5978,-3.3595,-0.1729,-1.474,-0.6208
2879.0,1.6793,-14.193,-2.8097,-0.1729,-1.474,-0.6208
2884.0,1.6793,-14.193,-2.8097,-0.1729,-1.474,-0.6208
2888.0,1.6793,-14.193,-2.8097,-0.1729,-1.474,-0.6208
2893.0,1.6793,-14.193,-2.8097,-0.1729,-1.474,-0.6208
2898.0,1.6793,-14.193,-2.8097,-0.1729,-1.474,-0.6208
2903.0,1.5931,-18.4498,-0.9994,0.4502,-0.5015,-1.5689
2908.0,1.5931,-18.4498,-0.9994,0.4502,-0.5015,-1.5689
2913.0,1.5931,-18.4498,-0.9994,0.4502,-0.5015,-1.5689
2918.0,1.5931,-18.4498,-0.9994,0.4502,-0.5015,-1.5689
2923.0,1.5931,-18.4498,-0.9994,0.4502,-0.5015,-1.5689
2929.0,2.1295,-14.5124,-1.6155,0.4502,-0.5015,-1.5689
2933.0,2.1295,-14.5124,-1.6155,1.0024,0.8509,-2.5566
2938.0,2.1295,-14.5124,-1.6155,1.0024,0.8509,-2.5566
2943.0,2.1295,-14.5124,-1.6155,1.0024,0.8509,-2.5566
2948.0,2.1295,-14.5124,-1.6155,1.0024,0.8509,-2.5566
2954.0,2.1295,-14.5124,-1.6155,1.0024,0.8509,-2.5566
2958.0,4.6342,-9.3452,-1.4686,1.0024,0.8509,-2.5566
2963.0,4.6342,-9.3452,-1.4686,0.8808,1.2822,-2.4839
2968.0,4.6342,-9.3452,-1.4686,0.8808,1.2822,-2.4839
2974.0,4.6342,-9.3452,-1.4686,0.8808,1.2822,-2.4839
2980.0,4.6342,-9.3452,-1.4686,0.8808,1.2822,-2.4839
2983.0,6.3152,-7.4909,-1.8098,0.8808,1.2822,-2.4839
2988.0,6.3152,-7.4909,-1.8098,0.8808,1.2822,-2.4839
2994.0,6.3152,-7.4909,-1.8098,-0.0929,-0.0727,-1.4552
2998.0,6.3152,-7.4909,-1.8098,-0.0929,-0.0727,-1.4552
3004.0,6.3152,-7.4909,-1.8098,-0.0929,-0.0727,-1.4552
3008.0,6.3152,-7.4909,-1.8098,-0.0929,-0.0727,-1.4552
3013.0,6.3152,-7.4909,-1.8098,-0.0929,-0.0727,-1.4552
3018.0,9.2271,-9.2737,-4.0419,-0.0929,-0.0727,-1.4552
3023.0,9.2271,-9.2737,-4.0419,-0.0929,-0.0727,-1.4552
3028.0,9.2271,-9.2737,-4.0419,-0.4924,-0.1924,-0.8816
3033.0,9.2271,-9.2737,-4.0419,-0.4924,-0.1924,-0.8816
3038.0,9.2271,-9.2737,-4.0419,-0.4924,-0.1924,-0.8816
3043.0,9.2271,-9.2737,-4.0419,-0.4924,-0.1924,-0.8816
3048.0,3.4034,-13.0967,-3.5727,-0.4924,-0.1924,-0.8816
3054.0,3.4034,-13.0967,-3.5727,-0.4924,-0.1924,-0.8816
3059.0,3.4034,-13.0967,-3.5727,-0.4924,-0.1924,-0.8816
3064.0,3.4034,-13.0967,-3.5727,1.0329,-0.7233,-0.0777
3068.0,3.4034,-13.0967,-3.5727,1.0329,-0.7233,-0.0777
3074.0,2.436,-8.6064,-3.5301,1.0329,-0.7233,-0.0777
3078.0,2.436,-8.6064,-3.5301,1.0329,-0.7233,-0.0777
3084.0,2.436,-8.6064,-3.5301,1.0329,-0.7233,-0.0777
3088.0,2.436,-8.6064,-3.5301,1.0329,-0.7233,-0.0777
3093.0,2.436,-8.6064,-3.5301,0.7519,-0.515,0.0829
3099.0,2.436,-8.6064,-3.5301,0.7519,-0.515,0.0829
3103.0,3.2166,-7.243,-3.2979,0.7519,-0.515,0.0829
3108.0,3.2166,-7.243,-3.2979,0.7519,-0.515,0.0829
3113.0,3.2166,-7.243,-3.2979,0.7519,-0.515,0.0829
3118.0,3.2166,-7.243,-3.2979,0.7519,-0.515,0.0829
3123.0,3.2166,-7.243,-3.2979,0.2284,-0.4044,0.067
3128.0,3.2166,-7.243,-3.2979,0.2284,-0.4044,0.067
3133.0,3.2166,-7.243,-3.2979,0.2284,-0.4044,0.067
3138.0,3.2166,-7.243,-3.2979,0.2284,-0.4044,0.067
3143.0,3.2166,-7.243,-3.2979,0.2284,-0.4044,0.067
3148.0,3.2693,-6.9999,-2.1794,0.2284,-0.4044,0.067
3154.0,3.2693,-6.9999,-2.1794,0.0146,-0.0867,0.1471
3159.0,3.2693,-6.9999,-2.1794,0.0146,-0.0867,0.1471
3164.0,3.2693,-6.9999,-2.1794,0.0146,-0.0867,0.1471
3168.0,3.2693,-6.9999,-2.1794,0.0146,-0.0867,0.1471
3173.0,4.1649,-7.7531,-1.9994,0.0146,-0.0867,0.1471
3178.0,4.1649,-7.7531,-1.9994,0.0146,-0.0867,0.1471
3183.0,4.1649,-7.7531,-1.9994,-0.0623,0.471,0.0707
3189.0,4.1649,-7.7531,-1.9994,-0.0623,0.471,0.0707
3193.0,4.1649,-7.7531,-1.9994,-0.0623,0.471,0.0707
3198.0,5.0844,-5.9989,-2.3264,-0.0623,0.471,0.0707
3203.0,5.0844,-5.9989,-2.3264,-0.0623,0.471,0.0707
3208.0,5.0844,-5.9989,-2.3264,-0.0623,0.471,0.0707
3213.0,5.0844,-5.9989,-2.3264,-0.2596,0.5986,0.0628
3218.0,5.0844,-5.9989,-2.3264,-0.2596,0.5986,0.0628
3223.0,5.0605,-4.8263,-2.4638,-0.2596,0.5986,0.0628
3228.0,5.0605,-4.8263,-2.4638,-0.2596,0.5986,0.0628
3233.0,5.0605,-4.8263,-2.4638,-0.2596,0.5986,0.0628
3238.0,5.0605,-4.8263,-2.4638,-0.2596,0.5986,0.0628
3243.0,5.0605,-4.8263,-2.4638,-0.3397,0.5565,0.2137
3249.0,5.0605,-4.8263,-2.4638,-0.3397,0.5565,0.2137
3253.0,3.5997,-6.7854,-2.4353,-0.3397,0.5565,0.2137
3258.0,3.5997,-6.7854,-2.4353,-0.3397,0.5565,0.2137
3263.0,3.5997,-6.7854,-2.4353,-0.3397,0.5565,0.2137
3268.0,3.5997,-6.7854,-2.4353,-0.3397,0.5565,0.2137
3273.0,3.5997,-6.7854,-2.4353,-0.3397,0.5565,0.2137
3279.0,2.7185,-8.6207,-2.587,-0.2682,0.6487,0.5832
3283.0,2.7185,-8.6207,-2.587,-0.2682,0.6487,0.5832
3288.0,2.7185,-8.6207,-2.587,-0.2682,0.6487,0.5832
3293.0,2.7185,-8.6207,-2.587,-0.2682,0.6487,0.5832
3298.0,2.7185,-8.6207,-2.587,-0.2682,0.6487,0.5832
3303.0,2.1438,-8.1058,-2.715,-0.2682,0.6487,0.5832
3309.0,2.1438,-8.1058,-2.715,-0.2047,0.6945,0.9778
3313.0,2.1438,-8.1058,-2.715,-0.2047,0.6945,0.9778
3318.0,2.1438,-8.1058,-2.715,-0.2047,0.6945,0.9778
3323.0,2.1438,-8.1058,-2.715,-0.2047,0.6945,0.9778
3329.0,2.2109,-6.7854,-3.042,-0.2047,0.6945,0.9778
3333.0,2.2109,-6.7854,-3.042,-0.2047,0.6945,0.9778
3339.0,2.2109,-6.7854,-3.042,-0.4008,0.6536,1.3994
3343.0,2.2109,-6.7854,-3.042,-0.4008,0.6536,1.3994
3349.0,2.2109,-6.7854,-3.042,-0.4008,0.6536,1.3994
3354.0,2.2109,-6.7854,-3.042,-0.4008,0.6536,1.3994
3358.0,1.5404,-8.3632,-3.1131,-0.4008,0.6536,1.3994
3363.0,1.5404,-8.3632,-3.1131,-0.4008,0.6536,1.3994
3368.0,1.5404,-8.3632,-3.1131,-0.1375,0.5797,1.2442
3373.0,1.5404,-8.3632,-3.1131,-0.1375,0.5797,1.2442
3378.0,1.5404,-8.3632,-3.1131,-0.1375,0.5797,1.2442
3383.0,0.5777,-9.0258,-3.6533,-0.1375,0.5797,1.2442
3388.0,0.5777,-9.0258,-3.6533,-0.1375,0.5797,1.2442
3393.0,0.5777,-9.0258,-3.6533,-0.1375,0.5797,1.2442
3398.0,0.5777,-9.0258,-3.6533,0.295,0.9102,0.8147
3403.0,0.5777,-9.0258,-3.6533,0.295,0.9102,0.8147
3409.0,1.7894,-7.1239,-3.9376,0.295,0.9102,0.8147
3413.0,1.7894,-7.1239,-3.9376,0.295,0.9102,0.8147
3418.0,1.7894,-7.1239,-3.9376,0.295,0.9102,0.8147
3423.0,1.7894,-7.1239,-3.9376,0.295,0.9102,0.8147
3428.0,1.7894,-7.1239,-3.9376,0.295,0.9102,0.8147
3434.0,1.7894,-7.1239,-3.9376,-0.0184,0.777,0.5289
3438.0,1.7894,-6.2849,-3.35,-0.0184,0.777,0.5289
3453.0,3.025,-6.2849,-3.35,-0.0184,0.777,0.5289
3454.0,3.025,-6.2849,-3.35,-0.0184,0.777,0.5289
3454.0,3.025,-6.2849,-3.35,-0.0184,0.777,0.5289
3458.0,3.025,-6.2849,-3.35,-0.0184,0.777,0.5289
3463.0,3.025,-6.2849,-3.35,0.1221,0.7868,0.4953
3468.0,4.0308,-7.2001,-3.1178,0.1221,0.7868,0.4953
3474.0,4.0308,-7.2001,-3.1178,0.1221,0.7868,0.4953
3478.0,4.0308,-7.2001,-3.1178,0.1221,0.7868,0.4953
3483.0,4.0308,-7.2001,-3.1178,0.1221,0.7868,0.4953
3488.0,4.0308,-7.2001,-3.1178,0.1221,0.7868,0.4953
3494.0,4.2415,-6.5995,-2.8477,0.1148,-0.0507,0.425
3498.0,4.2415,-6.5995,-2.8477,0.1148,-0.0507,0.425
3503.0,4.2415,-6.5995,-2.8477,0.1148,-0.0507,0.425
3508.0,4.2415,-6.5995,-2.8477,0.1148,-0.0507,0.425
3513.0,4.2415,-6.5995,-2.8477,0.1148,-0.0507,0.425
3518.0,4.2415,-6.5995,-2.8477,0.1148,-0.0507,0.425
3523.0,3.8057,-6.1944,-4.2267,0.0085,-0.6781,0.786
3528.0,3.8057,-6.1944,-4.2267,0.0085,-0.6781,0.786
3534.0,3.8057,-6.1944,-4.2267,0.0085,-0.6781,0.786
3538.0,3.8057,-6.1944,-4.2267,0.0085,-0.6781,0.786
3543.0,3.8057,-6.1944,-4.2267,0.0085,-0.6781,0.786
3549.0,2.7952,-6.7807,-4.5395,0.0085,-0.6781,0.786
3553.0,2.7952,-6.7807,-4.5395,0.0085,-0.6781,0.786
3558.0,2.7952,-6.7807,-4.5395,0.0537,-1.7801,0.7738
3563.0,2.7952,-6.7807,-4.5395,0.0537,-1.7801,0.7738
3568.0,2.7952,-6.7807,-4.5395,0.0537,-1.7801,0.7738
3573.0,3.8584,-6.7235,-4.4115,0.0537,-1.7801,0.7738
3578.0,3.8584,-6.7235,-4.4115,0.0537,-1.7801,0.7738
3583.0,3.8584,-6.7235,-4.4115,0.0537,-1.7801,0.7738
3588.0,3.8584,-6.7235,-4.4115,-0.1466,-0.9731,0.1177
3593.0,3.8584,-6.7235,-4.4115,-0.1466,-0.9731,0.1177
3599.0,3.8584,-6.7235,-4.4115,-0.1466,-0.9731,0.1177
3604.0,6.6122,-11.8382,-3.1131,-0.1466,-0.9731,0.1177
3608.0,6.6122,-11.8382,-3.1131,-0.1466,-0.9731,0.1177
3613.0,6.6122,-11.8382,-3.1131,-0.1466,-0.9731,0.1177
3618.0,6.6122,-11.8382,-3.1131,-0.2792,0.1881,-0.1498
3623.0,6.6122,-11.8382,-3.1131,-0.2792,0.1881,-0.1498
3628.0,7.5844,-15.3085,-1.0942,-0.2792,0.1881,-0.1498
3633.0,7.5844,-15.3085,-1.0942,-0.2792,0.1881,-0.1498
3638.0,7.5844,-15.3085,-1.0942,-0.2792,0.1881,-0.1498
3643.0,7.5844,-15.3085,-1.0942,-0.2792,0.1881,-0.1498
3648.0,7.5844,-15.3085,-1.0942,-0.2181,0.8595,0.5197
3653.0,7.5844,-15.3085,-1.0942,-0.2181,0.8595,0.5197
3661.0,5.4101,-13.6878,1.1521,-0.2181,0.8595,0.5197
3664.0,5.4101,-13.6878,1.1521,-0.2181,0.8595,0.5197
3668.0,5.4101,-13.6878,1.1521,-0.2181,0.8595,0.5197
3673.0,5.4101,-13.6878,1.1521,-0.2181,0.8595,0.5197
3678.0,5.4101,-13.6878,1.1521,-0.2554,-0.7288,1.0237
3683.0,-1.1751,-9.779,-5.9233,-0.2554,-0.7288,1.0237
3688.0,-1.1751,-9.779,-5.9233,-0.2554,-0.7288,1.0237
3693.0,-1.1751,-9.779,-5.9233,-0.2554,-0.7288,1.0237
3698.0,-1.1751,-9.779,-5.9233,-0.2554,-0.7288,1.0237
3704.0,-1.1751,-9.779,-5.9233,-0.2554,-0.7288,1.0237
3708.0,1.2818,-7.3622,3.2326,0.3133,-3.0751,0.1373
3713.0,1.2818,-7.3622,3.2326,0.3133,-3.0751,0.1373
3718.0,1.2818,-7.3622,3.2326,0.3133,-3.0751,0.1373
3723.0,1.2818,-7.3622,3.2326,0.3133,-3.0751,0.1373
3728.0,1.2818,-7.3622,3.2326,0.3133,-3.0751,0.1373
3733.0,1.2818,-7.3622,3.2326,0.3133,-3.0751,0.1373
3739.0,0.64,-10.9373,3.1852,0.3133,-3.0751,0.1373
3744.0,0.64,-10.9373,3.1852,-0.4814,0.6225,0.4665
3748.0,0.64,-10.9373,3.1852,-0.4814,0.6225,0.4665
3754.0,0.64,-10.9373,3.1852,-0.4814,0.6225,0.4665
3758.0,0.64,-10.9373,3.1852,-0.4814,0.6225,0.4665
3763.0,1.3105,-14.1978,1.1521,-0.4814,0.6225,0.4665
3768.0,1.3105,-14.1978,1.1521,-0.4814,0.6225,0.4665
3774.0,1.3105,-14.1978,1.1521,-0.0281,2.9163,0.4158
3780.0,1.3105,-14.1978,1.1521,-0.0281,2.9163,0.4158
3783.0,1.3105,-14.1978,1.1521,-0.0281,2.9163,0.4158
3788.0,1.3105,-14.1978,1.1521,-0.0281,2.9163,0.4158
3793.0,4.3948,-18.364,-16.0222,-0.0281,2.9163,0.4158
3799.0,4.3948,-18.364,-16.0222,-0.0281,2.9163,0.4158
3803.0,4.3948,-18.364,-16.0222,0.3689,0.3897,-0.0973
3808.0,4.3948,-18.364,-16.0222,0.3689,0.3897,-0.0973
3813.0,4.3948,-18.364,-16.0222,0.3689,0.3897,-0.0973
3818.0,4.1792,-11.066,1.19,0.3689,0.3897,-0.0973
3823.0,4.1792,-11.066,1.19,0.3689,0.3897,-0.0973
3828.0,4.1792,-11.066,1.19,0.3689,0.3897,-0.0973
3833.0,4.1792,-11.066,1.19,0.3689,0.3897,-0.0973
3838.0,4.1792,-11.066,1.19,0.2455,0.2376,-0.4302
3844.0,2.867,-7.0238,0.9673,0.2455,0.2376,-0.4302
3849.0,2.867,-7.0238,0.9673,0.2455,0.2376,-0.4302
3853.0,2.867,-7.0238,0.9673,0.2455,0.2376,-0.4302
3858.0,2.867,-7.0238,0.9673,0.2455,0.2376,-0.4302
3863.0,2.867,-7.0238,0.9673,0.2455,0.2376,-0.4302
3868.0,2.867,-7.0238,0.9673,0.2205,-0.0086,-0.3728
3873.0,2.6515,-4.5164,0.8298,0.2205,-0.0086,-0.3728
3878.0,2.6515,-4.5164,0.8298,0.2205,-0.0086,-0.3728
3883.0,2.6515,-4.5164,0.8298,0.2205,-0.0086,-0.3728
3888.0,2.6515,-4.5164,0.8298,0.2205,-0.0086,-0.3728
3894.0,2.6515,-4.5164,0.8298,0.2205,-0.0086,-0.3728
3898.0,4.4427,-6.9141,1.0715,0.0323,-0.2321,0.4061
3903.0,4.4427,-6.9141,1.0715,0.0323,-0.2321,0.4061
3908.0,4.4427,-6.9141,1.0715,0.0323,-0.2321,0.4061
3913.0,4.4427,-6.9141,1.0715,0.0323,-0.2321,0.4061
3918.0,4.4427,-6.9141,1.0715,0.0323,-0.2321,0.4061
3923.0,6.162,-11.2281,1.5834,0.0323,-0.2321,0.4061
3928.0,6.162,-11.2281,1.5834,0.0323,-0.2321,0.4061
3933.0,6.162,-11.2281,1.5834,-0.0862,-0.2108,1.2649
3939.0,6.162,-11.2281,1.5834,-0.0862,-0.2108,1.2649
3943.0,6.162,-11.2281,1.5834,-0.0862,-0.2108,1.2649
3948.0,6.162,-9.4072,1.4838,-0.0862,-0.2108,1.2649
3953.0,5.525,-9.4072,1.4838,-0.0862,-0.2108,1.2649
3959.0,5.525,-9.4072,1.4838,-0.0862,-0.2108,1.2649
3963.0,5.525,-9.4072,1.4838,-0.1191,0.2834,1.8068
3968.0,5.525,-9.4072,1.4838,-0.1191,0.2834,1.8068
3973.0,5.525,-9.4072,1.4838,-0.1191,0.2834,1.8068
3978.0,3.6285,-6.814,0.9199,-0.1191,0.2834,1.8068
3983.0,3.6285,-6.814,0.9199,-0.1191,0.2834,1.8068
3989.0,3.6285,-6.814,0.9199,-0.1191,0.2834,1.8068
3993.0,3.6285,-6.814,0.9199,-0.5358,1.0867,1.9998
3998.0,3.6285,-6.814,0.9199,-0.5358,1.0867,1.9998
4004.0,-0.5286,-11.2805,-16.0459,-0.5358,1.0867,1.9998
4009.0,-0.5286,-11.2805,-16.0459,-0.5358,1.0867,1.9998
4014.0,-0.5286,-11.2805,-16.0459,-0.5358,1.0867,1.9998
4020.0,-0.5286,-11.2805,-16.0459,-0.5358,1.0867,1.9998
4023.0,-0.5286,-11.2805,-16.0459,0.2883,-0.6677,-0.2176
4029.0,-0.5286,-11.2805,-16.0459,0.2883,-0.6677,-0.2176
4033.0,2.6611,-8.9686,-0.5445,0.2883,-0.6677,-0.2176
4038.0,2.6611,-8.9686,-0.5445,0.2883,-0.6677,-0.2176
4043.0,2.6611,-8.9686,-0.5445,0.2883,-0.6677,-0.2176
4048.0,2.6611,-8.9686,-0.5445,0.2883,-0.6677,-0.2176
4053.0,2.6611,-8.9686,-0.5445,-0.0367,-0.9866,-0.1987
4058.0,2.3019,-7.5767,1.3559,-0.0367,-0.9866,-0.1987
4063.0,2.3019,-7.5767,1.3559,-0.0367,-0.9866,-0.1987
4069.0,2.3019,-7.5767,1.3559,-0.0367,-0.9866,-0.1987
4073.0,2.3019,-7.5767,1.3559,-0.0367,-0.9866,-0.1987
4078.0,2.3019,-7.5767,1.3559,-0.0367,-0.9866,-0.1987
4083.0,2.2013,-8.8495,-0.6061,-0.0367,-0.9866,-0.1987
4088.0,2.2013,-8.8495,-0.6061,-0.0556,0.113,0.0328
4093.0,2.2013,-8.8495,-0.6061,-0.0556,0.113,0.0328
4098.0,2.2013,-8.8495,-0.6061,-0.0556,0.113,0.0328
4103.0,2.2013,-8.8495,-0.6061,-0.0556,0.113,0.0328
4108.0,2.2013,-8.8495,-0.6061,-0.0556,0.113,0.0328
4113.0,0.3239,-8.9353,-3.9282,-0.0556,0.113,0.0328
4118.0,0.3239,-8.9353,-3.9282,0.0855,-0.807,-0.6727
4124.0,0.3239,-8.9353,-3.9282,0.0855,-0.807,-0.6727
4128.0,0.3239,-8.9353,-3.9282,0.0855,-0.807,-0.6727
4133.0,0.3239,-8.9353,-3.9282,0.0855,-0.807,-0.6727
4138.0,1.0662,-6.5852,0.6071,0.0855,-0.807,-0.6727
4143.0,1.0662,-6.5852,0.6071,0.0855,-0.807,-0.6727
4148.0,1.0662,-6.5852,0.6071,0.0415,-0.5553,-0.878
4153.0,1.0662,-6.5852,0.6071,0.0415,-0.5553,-0.878
4159.0,1.0662,-6.5852,0.6071,0.0415,-0.5553,-0.878
4163.0,0.9178,-5.0265,0.4223,0.0415,-0.5553,-0.878
4168.0,0.9178,-5.0265,0.4223,0.0415,-0.5553,-0.878
4173.0,0.9178,-5.0265,0.4223,0.0415,-0.5553,-0.878
4178.0,0.9178,-5.0265,0.4223,0.0146,0.1075,-1.0441
4183.0,0.9178,-5.0265,0.4223,0.0146,0.1075,-1.0441
4188.0,0.9178,-5.0265,0.4223,0.0146,0.1075,-1.0441
4193.0,3.7674,-7.5481,-5.075,0.0146,0.1075,-1.0441
4198.0,3.7674,-7.5481,-5.075,0.0146,0.1075,-1.0441
4203.0,3.7674,-7.5481,-5.075,0.0146,0.1075,-1.0441
4208.0,3.7674,-7.5481,-5.075,0.0146,0.1075,-1.0441
4213.0,3.7674,-7.5481,-5.075,-0.2896,0.6585,-1.4296
4218.0,3.9781,-8.1058,-1.2411,-0.2896,0.6585,-1.4296
4224.0,3.9781,-8.1058,-1.2411,-0.2896,0.6585,-1.4296
4228.0,3.9781,-8.1058,-1.2411,-0.2896,0.6585,-1.4296
4233.0,3.9781,-8.1058,-1.2411,-0.2896,0.6585,-1.4296
4238.0,3.9781,-8.1058,-1.2411,-0.2896,0.6585,-1.4296
4243.0,3.9781,-8.1058,-1.2411,-0.3537,-0.1216,-0.8022
4249.0,3.571,-7.1286,-3.0656,-0.3537,-0.1216,-0.8022
4253.0,3.571,-7.1286,-3.0656,-0.3537,-0.1216,-0.8022
4258.0,3.571,-7.1286,-3.0656,-0.3537,-0.1216,-0.8022
4263.0,3.571,-7.1286,-3.0656,-0.3537,-0.1216,-0.8022
4268.0,3.571,-7.1286,-3.0656,-0.3537,-0.1216,-0.8022
4273.0,3.1783,-9.1164,-3.8192,-0.1778,-1.0122,-0.9714
4278.0,3.1783,-9.1164,-3.8192,-0.1778,-1.0122,-0.9714
4283.0,3.1783,-9.1164,-3.8192,-0.1778,-1.0122,-0.9714
4288.0,3.1783,-9.1164,-3.8192,-0.1778,-1.0122,-0.9714
4293.0,3.1783,-9.1164,-3.8192,-0.1778,-1.0122,-0.9714
4298.0,3.1783,-9.1164,-3.8192,-0.1778,-1.0122,-0.9714
4303.0,3.9254,-11.7334,-4.3499,-0.0654,-0.8057,-2.2072
4308.0,3.9254,-11.7334,-4.3499,-0.0654,-0.8057,-2.2072
4313.0,3.9254,-11.7334,-4.3499,-0.0654,-0.8057,-2.2072
4319.0,3.9254,-11.7334,-4.3499,-0.0654,-0.8057,-2.2072
4323.0,3.9254,-11.7334,-4.3499,-0.0654,-0.8057,-2.2072
4328.0,3.8632,-12.4484,-2.786,-0.0654,-0.8057,-2.2072
4333.0,3.8632,-12.4484,-2.786,0.212,0.325,-3.7869
4338.0,3.8632,-12.4484,-2.786,0.212,0.325,-3.7869
4343.0,3.8632,-12.4484,-2.786,0.212,0.325,-3.7869
4348.0,3.8632,-12.4484,-2.786,0.212,0.325,-3.7869
4354.0,3.9111,-11.5236,-1.8667,0.212,0.325,-3.7869
4358.0,3.9111,-11.5236,-1.8667,0.212,0.325,-3.7869
4363.0,3.9111,-11.5236,-1.8667,0.212,0.325,-3.7869
4368.0,3.9111,-11.5236,-1.8667,0.2602,0.2559,-3.7204
4373.0,3.9111,-11.5236,-1.8667,0.2602,0.2559,-3.7204
4378.0,3.9111,-11.5236,-1.8667,0.2602,0.2559,-3.7204
4383.0,6.2961,-11.2615,-4.1035,0.2602,0.2559,-3.7204
4388.0,6.2961,-11.2615,-4.1035,0.2602,0.2559,-3.7204
4393.0,6.2961,-11.2615,-4.1035,-0.3671,0.1955,-2.6947
4398.0,6.2961,-11.2615,-4.1035,-0.3671,0.1955,-2.6947
4404.0,6.2961,-11.2615,-4.1035,-0.3671,0.1955,-2.6947
4408.0,6.3727,-13.6115,-6.4446,-0.3671,0.1955,-2.6947
4413.0,6.3727,-13.6115,-6.4446,-0.3671,0.1955,-2.6947
4418.0,6.3727,-13.6115,-6.4446,-0.3671,0.1955,-2.6947
4423.0,6.3727,-13.6115,-6.4446,-0.3671,0.1955,-2.6947
4428.0,6.3727,-13.6115,-6.4446,-0.6384,-1.8253,-1.2219
4433.0,6.3727,-13.6115,-6.4446,-0.6384,-1.8253,-1.2219
4438.0,4.2655,-13.2588,-3.7623,-0.6384,-1.8253,-1.2219
4443.0,4.2655,-13.2588,-3.7623,-0.6384,-1.8253,-1.2219
4448.0,4.2655,-13.2588,-3.7623,-0.6384,-1.8253,-1.2219
4453.0,4.2655,-13.2588,-3.7623,-0.6384,-1.8253,-1.2219
4458.0,4.2655,-13.2588,-3.7623,0.2285,-1.9554,-0.5328
4464.0,2.5796,-10.0364,-1.3785,0.2285,-1.9554,-0.5328
4468.0,2.5796,-10.0364,-1.3785,0.2285,-1.9554,-0.5328
4473.0,2.5796,-10.0364,-1.3785,0.2285,-1.9554,-0.5328
4478.0,2.5796,-10.0364,-1.3785,0.2285,-1.9554,-0.5328
4483.0,2.5796,-10.0364,-1.3785,0.2285,-1.9554,-0.5328
4488.0,2.5796,-10.0364,-1.3785,0.2285,-1.9554,-0.5328
4494.0,3.6237,-6.8236,-2.0515,0.6084,-0.3592,-0.7448
4498.0,3.6237,-6.8236,-2.0515,0.6084,-0.3592,-0.7448
4504.0,3.6237,-6.8236,-2.0515,0.6084,-0.3592,-0.7448
4508.0,3.6237,-6.8236,-2.0515,0.6084,-0.3592,-0.7448
4513.0,3.6237,-6.8236,-2.0515,0.6084,-0.3592,-0.7448
4518.0,3.4321,-6.9761,-3.4922,0.6084,-0.3592,-0.7448
4523.0,3.4321,-6.9761,-3.4922,0.3183,1.6005,-0.1962
4528.0,3.4321,-6.9761,-3.4922,0.3183,1.6005,-0.1962
4533.0,3.4321,-6.9761,-3.4922,0.3183,1.6005,-0.1962
4538.0,3.4321,-6.9761,-3.4922,0.3183,1.6005,-0.1962
4544.0,3.4321,-6.9761,-3.4922,0.3183,1.6005,-0.1962
4548.0,2.2348,-7.6339,-4.8997,0.3183,1.6005,-0.1962
4553.0,2.2348,-7.6339,-4.8997,0.5595,1.3231,1.0255
4559.0,2.2348,-7.6339,-4.8997,0.5595,1.3231,1.0255
4563.0,2.2348,-7.6339,-4.8997,0.5595,1.3231,1.0255
4568.0,2.2348,-7.6339,-4.8997,0.5595,1.3231,1.0255
4573.0,0.3718,-6.1991,-3.5727,0.5595,1.3231,1.0255
4579.0,0.3718,-6.1991,-3.5727,0.5595,1.3231,1.0255
4583.0,0.3718,-6.1991,-3.5727,0.6487,0.6304,2.2802
4588.0,0.3718,-6.1991,-3.5727,0.6487,0.6304,2.2802
4593.0,0.3718,-6.1991,-3.5727,0.6487,0.6304,2.2802
4598.0,0.6352,-5.8511,-1.5302,0.6487,0.6304,2.2802
4604.0,0.6352,-5.8511,-1.5302,0.6487,0.6304,2.2802
4608.0,0.6352,-5.8511,-1.5302,0.6487,0.6304,2.2802
4613.0,0.6352,-5.8511,-1.5302,0.5938,0.8259,2.9357
4618.0,0.6352,-5.8511,-1.5302,0.5938,0.8259,2.9357
4623.0,0.6352,-5.8511,-1.5302,0.5938,0.8259,2.9357
4628.0,2.7377,-6.8665,-0.8099,0.5938,0.8259,2.9357
4634.0,2.7377,-6.8665,-0.8099,0.5938,0.8259,2.9357
4638.0,2.7377,-6.8665,-0.8099,0.5938,0.8259,2.9357
4643.0,2.7377,-6.8665,-0.8099,0.5938,0.8259,2.9357
4650.0,2.7377,-6.8665,-0.8099,0.3018,1.4667,2.7885
4653.0,5.1563,-8.3537,-0.8904,0.3018,1.4667,2.7885
4658.0,5.1563,-8.3537,-0.8904,0.3018,1.4667,2.7885
4663.0,5.1563,-8.3537,-0.8904,0.3018,1.4667,2.7885
4668.0,5.1563,-8.3537,-0.8904,0.3018,1.4667,2.7885
4673.0,5.1563,-8.3537,-0.8904,0.3018,1.4667,2.7885
4678.0,6.4828,-7.6625,-2.2316,0.3482,3.0928,1.582
4683.0,6.4828,-7.6625,-2.2316,0.3482,3.0928,1.582
4688.0,6.4828,-7.6625,-2.2316,0.3482,3.0928,1.582
4693.0,6.4828,-7.6625,-2.2316,0.3482,3.0928,1.582
4699.0,6.4828,-7.6625,-2.2316,0.3482,3.0928,1.582
4704.0,6.4828,-7.6625,-2.2316,0.3482,3.0928,1.582
4708.0,6.4302,-6.3135,-3.5348,-0.0287,2.97,0.4036
4714.0,6.4302,-6.3135,-3.5348,-0.0287,2.97,0.4036
4718.0,6.4302,-6.3135,-3.5348,-0.0287,2.97,0.4036
4723.0,6.4302,-6.3135,-3.5348,-0.0287,2.97,0.4036
4728.0,6.4302,-6.3135,-3.5348,-0.0287,2.97,0.4036
4733.0,6.6984,-5.6462,-5.9612,-0.0287,2.97,0.4036
4739.0,6.6984,-5.6462,-5.9612,-0.0287,2.97,0.4036
4743.0,6.6984,-5.6462,-5.9612,-0.223,2.1808,-0.6434
4749.0,6.6984,-5.6462,-5.9612,-0.223,2.1808,-0.6434
4760.0,5.1898,-7.0857,-7.3498,-0.223,2.1808,-0.6434
4760.0,5.1898,-7.0857,-7.3498,-0.223,2.1808,-0.6434
4763.0,5.1898,-7.0857,-7.3498,-0.223,2.1808,-0.6434
4769.0,5.1898,-7.0857,-7.3498,-0.223,2.1808,-0.6434
4774.0,5.1898,-7.0857,-7.3498,0.1313,0.2333,-0.0924
4779.0,5.1898,-7.0857,-7.3498,0.1313,0.2333,-0.0924
4783.0,5.1898,-7.0857,-7.3498,0.1313,0.2333,-0.0924
4788.0,3.6476,-6.9904,-5.075,0.1313,0.2333,-0.0924
4794.0,3.6476,-6.9904,-5.075,0.1313,0.2333,-0.0924
4799.0,3.6476,-6.9904,-5.075,0.1313,0.2333,-0.0924
4804.0,3.6476,-6.9904,-5.075,0.1295,-2.4759,0.4708
4808.0,3.6476,-6.9904,-5.075,0.1295,-2.4759,0.4708
4813.0,2.594,-5.8178,-3.7197,0.1295,-2.4759,0.4708
4819.0,2.594,-5.8178,-3.7197,0.1295,-2.4759,0.4708
4824.0,2.594,-5.8178,-3.7197,0.1295,-2.4759,0.4708
4828.0,2.594,-5.8178,-3.7197,0.1295,-2.4759,0.4708
4833.0,2.594,-5.8178,-3.7197,0.5687,-1.0415,-1.1058
4838.0,2.594,-5.8178,-3.7197,0.5687,-1.0415,-1.1058
4843.0,1.1908,-2.8147,-2.2031,0.5687,-1.0415,-1.1058
4848.0,1.1908,-2.8147,-2.2031,0.5687,-1.0415,-1.1058
4854.0,1.1908,-2.8147,-2.2031,0.5687,-1.0415,-1.1058
4858.0,1.1908,-2.8147,-2.2031,0.5687,-1.0415,-1.1058
4863.0,1.1908,-2.8147,-2.2031,0.5687,-1.0415,-1.1058
4868.0,2.7808,-2.6383,-0.4213,0.1466,-2.1973,0.5557
4873.0,2.7808,-2.6383,-0.4213,0.1466,-2.1973,0.5557
4878.0,2.7808,-2.6383,-0.4213,0.1466,-2.1973,0.5557
4883.0,2.7808,-2.6383,-0.4213,0.1466,-2.1973,0.5557
4888.0,2.7808,-2.6383,-0.4213,0.1466,-2.1973,0.5557
4893.0,6.9714,-8.6302,2.7018,0.1466,-2.1973,0.5557
4898.0,6.9714,-8.6302,2.7018,-1.0305,-3.2205,2.3358
4903.0,6.9714,-8.6302,2.7018,-1.0305,-3.2205,2.3358
4908.0,6.9714,-8.6302,2.7018,-1.0305,-3.2205,2.3358
4914.0,6.9714,-8.6302,2.7018,-1.0305,-3.2205,2.3358
4918.0,6.9714,-8.6302,2.7018,-1.0305,-3.2205,2.3358
4923.0,15.2615,-17.0579,-3.2931,-1.0305,-3.2205,2.3358
4928.0,15.2615,-17.0579,-3.2931,-2.2504,2.0091,-1.3758
4933.0,15.2615,-17.0579,-3.2931,-2.2504,2.0091,-1.3758
4939.0,15.2615,-17.0579,-3.2931,-2.2504,2.0091,-1.3758
4944.0,15.2615,-17.0579,-3.2931,-2.2504,2.0091,-1.3758
4949.0,2.5222,-19.3555,-10.6576,-2.2504,2.0091,-1.3758
4953.0,2.5222,-19.3555,-10.6576,-2.2504,2.0091,-1.3758
4958.0,2.5222,-19.3555,-10.6576,-2.2504,2.0091,-1.3758
4963.0,2.5222,-19.3555,-10.6576,0.2364,2.4728,-1.1193
4968.0,2.5222,-19.3555,-10.6576,0.2364,2.4728,-1.1193
4973.0,2.5222,-19.3555,-10.6576,0.2364,2.4728,-1.1193
4979.0,1.7032,-9.8219,-4.5443,0.2364,2.4728,-1.1193
4983.0,1.7032,-9.8219,-4.5443,0.2364,2.4728,-1.1193
4989.0,1.7032,-9.8219,-4.5443,0.2364,2.4728,-1.1193
4993.0,1.7032,-9.8219,-4.5443,-0.1796,-4.9285,0.9241
4998.0,1.7032,-9.8219,-4.5443,-0.1796,-4.9285,0.9241
5003.0,4.2655,-7.1191,4.2704,-0.1796,-4.9285,0.9241
5008.0,4.2655,-7.1191,4.2704,-0.1796,-4.9285,0.9241
5013.0,4.2655,-7.1191,4.2704,-0.1796,-4.9285,0.9241
5018.0,4.2655,-7.1191,4.2704,-0.1796,-4.9285,0.9241
5023.0,4.2655,-7.1191,4.2704,-0.8809,-3.2517,1.3083
5028.0,3.7291,-13.1491,4.024,-0.8809,-3.2517,1.3083
5033.0,3.7291,-13.1491,4.024,-0.8809,-3.2517,1.3083
5039.0,3.7291,-13.1491,4.024,-0.8809,-3.2517,1.3083
5043.0,3.7291,-13.1491,4.024,-0.8809,-3.2517,1.3083
5048.0,3.7291,-13.1491,4.024,-0.8809,-3.2517,1.3083
5053.0,3.7291,-13.1491,4.024,-0.8809,-3.2517,1.3083
5059.0,2.8957,-13.8212,1.3275,-0.0953,1.8106,1.3077
5064.0,2.8957,-13.8212,1.3275,-0.0953,1.8106,1.3077
5068.0,2.8957,-13.8212,1.3275,-0.0953,1.8106,1.3077
5073.0,2.8957,-13.8212,1.3275,-0.0953,1.8106,1.3077
5078.0,2.8957,-13.8212,1.3275,-0.0953,1.8106,1.3077
5083.0,5.3574,-10.4368,-6.6389,-0.0953,1.8106,1.3077
5088.0,5.3574,-10.4368,-6.6389,-0.2657,1.1203,-0.8908
5094.0,5.3574,-10.4368,-6.6389,-0.2657,1.1203,-0.8908
5099.0,5.3574,-10.4368,-6.6389,-0.2657,1.1203,-0.8908
5103.0,5.3574,-10.4368,-6.6389,-0.2657,1.1203,-0.8908
5109.0,5.3574,-10.4368,-6.6389,-0.2657,1.1203,-0.8908
5114.0,6.2673,-11.8335,-1.1179,-0.2657,1.1203,-0.8908
5118.0,6.2673,-11.8335,-1.1179,-0.3189,1.5357,-0.0771
5123.0,6.2673,-11.8335,-1.1179,-0.3189,1.5357,-0.0771
5128.0,6.2673,-11.8335,-1.1179,-0.3189,1.5357,-0.0771
5134.0,6.2673,-11.8335,-1.1179,-0.3189,1.5357,-0.0771
5138.0,3.1735,-9.8267,0.6166,-0.3189,1.5357,-0.0771
5144.0,3.1735,-9.8267,0.6166,-0.3189,1.5357,-0.0771
5148.0,3.1735,-9.8267,0.6166,-0.1191,0.1356,0.918
5153.0,3.1735,-9.8267,0.6166,-0.1191,0.1356,0.918
5159.0,3.1735,-9.8267,0.6166,-0.1191,0.1356,0.918
5163.0,3.1735,-9.8267,0.6166,-0.1191,0.1356,0.918
5169.0,1.89,-8.2536,-0.4734,-0.1191,0.1356,0.918
5173.0,1.89,-8.2536,-0.4734,-0.1191,0.1356,0.918
5178.0,1.89,-8.2536,-0.4734,-0.1191,0.1356,0.918
5184.0,1.89,-8.2536,-0.4734,0.0953,-0.1814,1.4555
5189.0,1.89,-8.2536,-0.4734,0.0953,-0.1814,1.4555
5193.0,2.1103,-7.2049,-1.7482,0.0953,-0.1814,1.4555
5199.0,2.1103,-7.2049,-1.7482,0.0953,-0.1814,1.4555
5203.0,2.1103,-7.2049,-1.7482,0.0953,-0.1814,1.4555
5209.0,2.1103,-7.2049,-1.7482,0.0953,-0.1814,1.4555
5213.0,2.1103,-7.2049,-1.7482,0.0666,-0.4527,1.4635
5218.0,3.8536,-7.9485,-1.2316,0.0666,-0.4527,1.4635
5223.0,3.8536,-7.9485,-1.2316,0.0666,-0.4527,1.4635
5229.0,3.8536,-7.9485,-1.2316,0.0666,-0.4527,1.4635
5233.0,3.8536,-7.9485,-1.2316,0.0666,-0.4527,1.4635
5238.0,3.8536,-7.9485,-1.2316,0.0666,-0.4527,1.4635
5243.0,3.8536,-7.9485,-1.2316,-0.0446,-0.0599,1.1055
5248.0,4.5576,-7.1572,-2.0183,-0.0446,-0.0599,1.1055
5253.0,4.5576,-7.1572,-2.0183,-0.0446,-0.0599,1.1055
5258.0,4.5576,-7.1572,-2.0183,-0.0446,-0.0599,1.1055
5264.0,4.5576,-7.1572,-2.0183,-0.0446,-0.0599,1.1055
5268.0,4.5576,-7.1572,-2.0183,-0.0446,-0.0599,1.1055
5273.0,3.7817,-7.2669,-2.9282,-0.1973,-0.212,0.6315
5279.0,3.7817,-7.2669,-2.9282,-0.1973,-0.212,0.6315
5283.0,3.7817,-7.2669,-2.9282,-0.1973,-0.212,0.6315
5288.0,3.7817,-7.2669,-2.9282,-0.1973,-0.212,0.6315
5293.0,3.7817,-7.2669,-2.9282,-0.1973,-0.212,0.6315
5298.0,2.2588,-7.7579,-1.8904,-0.1973,-0.212,0.6315
5304.0,2.2588,-7.7579,-1.8904,-0.1387,-0.8118,0.3034
5308.0,2.2588,-7.7579,-1.8904,-0.1387,-0.8118,0.3034
5313.0,2.2588,-7.7579,-1.8904,-0.1387,-0.8118,0.3034
5318.0,2.2588,-7.7579,-1.8904,-0.1387,-0.8118,0.3034
5323.0,2.2588,-7.7579,-1.8904,-0.1387,-0.8118,0.3034
5328.0,1.0519,-7.0762,-2.8145,-0.1387,-0.8118,0.3034
5333.0,1.0519,-7.0762,-2.8145,0.0696,-1.2608,-0.0594
5338.0,1.0519,-7.0762,-2.8145,0.0696,-1.2608,-0.0594
5343.0,1.0519,-7.0762,-2.8145,0.0696,-1.2608,-0.0594
5348.0,1.0519,-7.0762,-2.8145,0.0696,-1.2608,-0.0594
5353.0,1.0375,-6.7187,-2.7007,0.0696,-1.2608,-0.0594
5358.0,1.0375,-6.7187,-2.7007,0.0696,-1.2608,-0.0594
5363.0,1.0375,-6.7187,-2.7007,0.0696,-1.2608,-0.0594
5368.0,1.0375,-6.7187,-2.7007,0.149,-1.0977,-0.6611
5373.0,1.0375,-6.7187,-2.7007,0.149,-1.0977,-0.6611
5378.0,1.0375,-6.7187,-2.7007,0.149,-1.0977,-0.6611
5384.0,1.3776,-6.4041,-2.895,0.149,-1.0977,-0.6611
5388.0,1.3776,-6.4041,-2.895,0.149,-1.0977,-0.6611
5393.0,1.3776,-6.4041,-2.895,0.0739,-0.7196,-1.0673
5398.0,1.3776,-6.4041,-2.895,0.0739,-0.7196,-1.0673
5403.0,1.3776,-6.4041,-2.895,0.0739,-0.7196,-1.0673
5408.0,1.459,-7.0428,-0.2601,0.0739,-0.7196,-1.0673
5413.0,1.459,-7.0428,-0.2601,0.0739,-0.7196,-1.0673
5419.0,1.459,-7.0428,-0.2601,0.0739,-0.7196,-1.0673
5423.0,1.459,-7.0428,-0.2601,0.0739,-0.7196,-1.0673
5428.0,1.459,-7.0428,-0.2601,0.1228,0.1558,-1.2732
5433.0,1.459,-7.0428,-0.2601,0.1228,0.1558,-1.2732
5438.0,1.1093,-6.8379,0.3796,0.1228,0.1558,-1.2732
5443.0,1.1093,-6.8379,0.3796,0.1228,0.1558,-1.2732
5448.0,1.1093,-6.8379,0.3796,0.1228,0.1558,-1.2732
5453.0,1.1093,-6.8379,0.3796,0.1228,0.1558,-1.2732
5458.0,1.1093,-6.8379,0.3796,-0.0959,1.1906,-1.1419
5463.0,2.1342,-8.5968,-3.042,-0.0959,1.1906,-1.1419
5468.0,2.1342,-8.5968,-3.042,-0.0959,1.1906,-1.1419
5473.0,2.1342,-8.5968,-3.042,-0.0959,1.1906,-1.1419
5478.0,2.1342,-8.5968,-3.042,-0.0959,1.1906,-1.1419
5483.0,2.1342,-8.5968,-3.042,-0.0959,1.1906,-1.1419
5488.0,3.3986,-8.9734,-2.6628,0.0208,0.5583,-0.7228
5493.0,3.3986,-8.9734,-2.6628,0.0208,0.5583,-0.7228
5498.0,3.3986,-8.9734,-2.6628,0.0208,0.5583,-0.7228
5503.0,3.3986,-8.9734,-2.6628,0.0208,0.5583,-0.7228
5509.0,3.3986,-8.9734,-2.6628,0.0208,0.5583,-0.7228
5514.0,3.3986,-8.9734,-2.6628,0.0208,0.5583,-0.7228
5519.0,3.5327,-11.7429,-2.4401,0.2254,0.0898,-0.8963
5524.0,3.5327,-11.7429,-2.4401,0.2254,0.0898,-0.8963
5528.0,3.5327,-11.7429,-2.4401,0.2254,0.0898,-0.8963
5533.0,3.5327,-11.7429,-2.4401,0.2254,0.0898,-0.8963
5538.0,3.5327,-11.7429,-2.4401,0.2254,0.0898,-0.8963
5543.0,3.6716,-14.6888,-4.1272,0.2254,0.0898,-0.8963
5548.0,3.6716,-14.6888,-4.1272,0.2254,0.0898,-0.8963
5553.0,3.6716,-14.6888,-4.1272,0.5027,-0.1026,-1.6068
5558.0,3.6716,-14.6888,-4.1272,0.5027,-0.1026,-1.6068
5563.0,3.6716,-14.6888,-4.1272,0.5027,-0.1026,-1.6068
5568.0,3.6716,-14.6888,-4.1272,0.5027,-0.1026,-1.6068
5573.0,4.0116,-13.5781,-5.492,0.5027,-0.1026,-1.6068
5578.0,4.0116,-13.5781,-5.492,0.5027,-0.1026,-1.6068
5583.0,4.0116,-13.5781,-5.492,0.854,-0.1545,-2.7136
5588.0,4.0116,-13.5781,-5.492,0.854,-0.1545,-2.7136
5593.0,4.0116,-13.5781,-5.492,0.854,-0.1545,-2.7136
5598.0,4.0116,-13.5781,-5.492,0.854,-0.1545,-2.7136
5603.0,4.5097,-10.1079,-2.2885,0.854,-0.1545,-2.7136
5608.0,4.5097,-10.1079,-2.2885,0.854,-0.1545,-2.7136
5613.0,4.5097,-10.1079,-2.2885,1.0678,-0.2675,-2.5872
5619.0,4.5097,-10.1079,-2.2885,1.0678,-0.2675,-2.5872
5624.0,4.5097,-10.1079,-2.2885,1.0678,-0.2675,-2.5872
5628.0,6.5068,-8.2393,-2.1842,1.0678,-0.2675,-2.5872
5633.0,6.5068,-8.2393,-2.1842,1.0678,-0.2675,-2.5872
5638.0,6.5068,-8.2393,-2.1842,1.0678,-0.2675,-2.5872
5643.0,6.5068,-8.2393,-2.1842,0.4606,-0.8051,-2.1626
5648.0,6.5068,-8.2393,-2.1842,0.4606,-0.8051,-2.1626
5653.0,9.5911,-9.2785,-4.0609,0.4606,-0.8051,-2.1626
5659.0,9.5911,-9.2785,-4.0609,0.4606,-0.8051,-2.1626
5664.0,9.5911,-9.2785,-4.0609,0.4606,-0.8051,-2.1626
5668.0,9.5911,-9.2785,-4.0609,0.4606,-0.8051,-2.1626
5673.0,9.5911,-9.2785,-4.0609,0.044,-0.6438,-1.8596
5679.0,9.5911,-9.2785,-4.0609,0.044,-0.6438,-1.8596
5683.0,7.4647,-12.9346,-3.8523,0.044,-0.6438,-1.8596
5688.0,7.4647,-12.9346,-3.8523,0.044,-0.6438,-1.8596
5693.0,7.4647,-12.9346,-3.8523,0.044,-0.6438,-1.8596
5698.0,7.4647,-12.9346,-3.8523,0.044,-0.6438,-1.8596
5703.0,7.4647,-12.9346,-3.8523,0.303,-1.27,-0.969
5708.0,2.6515,-11.2805,-3.6628,0.303,-1.27,-0.969
5713.0,2.6515,-11.2805,-3.6628,0.303,-1.27,-0.969
5719.0,2.6515,-11.2805,-3.6628,0.303,-1.27,-0.969
5724.0,2.6515,-11.2805,-3.6628,0.303,-1.27,-0.969
5728.0,2.6515,-11.2805,-3.6628,0.303,-1.27,-0.969
5734.0,2.3689,-9.6312,-4.4589,0.6017,-0.5119,-0.6135
5739.0,2.3689,-9.6312,-4.4589,0.6017,-0.5119,-0.6135
5743.0,2.3689,-9.6312,-4.4589,0.6017,-0.5119,-0.6135
5748.0,2.3689,-9.6312,-4.4589,0.6017,-0.5119,-0.6135
5753.0,2.3689,-9.6312,-4.4589,0.6017,-0.5119,-0.6135
5758.0,2.3689,-9.6312,-4.4589,0.6017,-0.5119,-0.6135
5763.0,2.2635,-8.287,-4.3689,0.5021,0.0122,-0.1633
5768.0,2.2635,-8.287,-4.3689,0.5021,0.0122,-0.1633
5773.0,2.2635,-8.287,-4.3689,0.5021,0.0122,-0.1633
5778.0,2.2635,-8.287,-4.3689,0.5021,0.0122,-0.1633
5783.0,2.2635,-8.287,-4.3689,0.5021,0.0122,-0.1633
5788.0,1.9044,-6.6186,-2.7813,0.5021,0.0122,-0.1633
5793.0,1.9044,-6.6186,-2.7813,0.179,0.4746,0.3273
5799.0,1.9044,-6.6186,-2.7813,0.179,0.4746,0.3273
5803.0,1.9044,-6.6186,-2.7813,0.179,0.4746,0.3273
5809.0,1.9044,-6.6186,-2.7813,0.179,0.4746,0.3273
5814.0,1.7224,-5.2124,-1.4023,0.179,0.4746,0.3273
5819.0,1.7224,-5.2124,-1.4023,0.179,0.4746,0.3273
5823.0,1.7224,-5.2124,-1.4023,0.0513,0.6273,0.7769
5828.0,1.7224,-5.2124,-1.4023,0.0513,0.6273,0.7769
5833.0,1.7224,-5.2124,-1.4023,0.0513,0.6273,0.7769
5838.0,1.7224,-5.2124,-1.4023,0.0513,0.6273,0.7769
5843.0,2.3545,-4.0588,-0.6156,0.0513,0.6273,0.7769
5848.0,2.3545,-4.0588,-0.6156,0.0513,0.6273,0.7769
5853.0,2.3545,-4.0588,-0.6156,0.2914,0.62,1.5429
5858.0,2.3545,-4.0588,-0.6156,0.2914,0.62,1.5429
5863.0,2.3545,-4.0588,-0.6156,0.2914,0.62,1.5429
5868.0,3.4225,-3.8252,-0.2033,0.2914,0.62,1.5429
5873.0,3.4225,-3.8252,-0.2033,0.2914,0.62,1.5429
5879.0,3.4225,-3.8252,-0.2033,0.2914,0.62,1.5429
5883.0,3.4225,-3.8252,-0.2033,0.4117,0.942,2.4885
5888.0,3.4225,-3.8252,-0.2033,0.4117,0.942,2.4885
5893.0,3.4225,-3.8252,-0.2033,0.4117,0.942,2.4885
5899.0,4.3085,-4.24,-0.0279,0.4117,0.942,2.4885
5903.0,4.3085,-4.24,-0.0279,0.4117,0.942,2.4885
5908.0,4.3085,-4.24,-0.0279,0.4117,0.942,2.4885
5913.0,4.3085,-4.24,-0.0279,0.0574,1.7446,3.0157
5918.0,4.3085,-4.24,-0.0279,0.0574,1.7446,3.0157
5924.0,3.5566,-6.5805,-0.6535,0.0574,1.7446,3.0157
5928.0,3.5566,-6.5805,-0.6535,0.0574,1.7446,3.0157
5933.0,3.5566,-6.5805,-0.6535,0.0574,1.7446,3.0157
5938.0,3.5566,-6.5805,-0.6535,0.0574,1.7446,3.0157
5944.0,3.5566,-6.5805,-0.6535,0.0574,1.7446,3.0157
5948.0,3.9877,-9.8934,-1.625,-0.4478,2.9163,1.9754
5953.0,3.9877,-9.8934,-1.625,-0.4478,2.9163,1.9754
5958.0,3.9877,-9.8934,-1.625,-0.4478,2.9163,1.9754
5963.0,3.9877,-9.8934,-1.625,-0.4478,2.9163,1.9754
5968.0,3.9877,-9.8934,-1.625,-0.4478,2.9163,1.9754
5973.0,3.9877,-9.8934,-1.625,-0.4478,2.9163,1.9754
5978.0,5.1084,-10.1985,-3.5396,-0.2774,3.2193,-0.4058
5983.0,5.1084,-10.1985,-3.5396,-0.2774,3.2193,-0.4058
5989.0,5.1084,-10.1985,-3.5396,-0.2774,3.2193,-0.4058
5993.0,5.1084,-10.1985,-3.5396,-0.2774,3.2193,-0.4058
5999.0,5.1084,-10.1985,-3.5396,-0.2774,3.2193,-0.4058
6003.0,9.0738,-8.1201,-11.013,-0.2774,3.2193,-0.4058
6008.0,9.0738,-8.1201,-11.013,-0.3189,3.3989,-1.8578
6013.0,9.0738,-8.1201,-11.013,-0.3189,3.3989,-1.8578
6018.0,9.0738,-8.1201,-11.013,-0.3189,3.3989,-1.8578
6023.0,9.0738,-8.1201,-11.013,-0.3189,3.3989,-1.8578
6028.0,9.7587,-3.4487,-12.2262,-0.3189,3.3989,-1.8578
6034.0,9.7587,-3.4487,-12.2262,-0.3189,3.3989,-1.8578
6038.0,9.7587,-3.4487,-12.2262,-0.7037,-1.6671,0.866
6043.0,9.7587,-3.4487,-12.2262,-0.7037,-1.6671,0.866
6048.0,9.7587,-3.4487,-12.2262,-0.7037,-1.6671,0.866
6053.0,9.7587,-3.4487,-12.2262,-0.7037,-1.6671,0.866
6059.0,7.0288,-3.7394,-3.1936,-0.7037,-1.6671,0.866
6063.0,7.0288,-3.7394,-3.1936,-0.7037,-1.6671,0.866
6068.0,7.0288,-3.7394,-3.1936,-0.7037,-1.6671,0.866
6073.0,7.0288,-3.7394,-3.1936,-0.9628,-5.8082,3.1299
6078.0,7.0288,-3.7394,-3.1936,-0.9628,-5.8082,3.1299
6083.0,5.4196,-5.8178,0.8583,-0.9628,-5.8082,3.1299
6088.0,5.4196,-5.8178,0.8583,-0.9628,-5.8082,3.1299
6093.0,5.4196,-5.8178,0.8583,-0.9628,-5.8082,3.1299
6098.0,5.4196,-5.8178,0.8583,-0.9628,-5.8082,3.1299
6103.0,5.4196,-5.8178,0.8583,-0.4295,-5.89,2.8385
6108.0,5.3191,-8.349,2.588,-0.4295,-5.89,2.8385
6113.0,5.3191,-8.349,2.588,-0.4295,-5.89,2.8385
6118.0,5.3191,-8.349,2.588,-0.4295,-5.89,2.8385
6123.0,5.3191,-8.349,2.588,-0.4295,-5.89,2.8385
6128.0,5.3191,-8.349,2.588,-0.4295,-5.89,2.8385
6134.0,3.6668,-10.8134,2.043,-0.2774,-2.6353,0.9858
6138.0,3.6668,-10.8134,2.043,-0.2774,-2.6353,0.9858
6144.0,3.6668,-10.8134,2.043,-0.2774,-2.6353,0.9858
6148.0,3.6668,-10.8134,2.043,-0.2774,-2.6353,0.9858
6154.0,3.6668,-10.8134,2.043,-0.2774,-2.6353,0.9858
6158.0,3.6668,-10.8134,2.043,-0.2774,-2.6353,0.9858
6163.0,0.98,-17.0627,-9.0748,-0.7471,2.0262,-0.9898
6168.0,0.98,-17.0627,-9.0748,-0.7471,2.0262,-0.9898
6173.0,0.98,-17.0627,-9.0748,-0.7471,2.0262,-0.9898
6179.0,0.98,-17.0627,-9.0748,-0.7471,2.0262,-0.9898
6183.0,0.98,-17.0627,-9.0748,-0.7471,2.0262,-0.9898
6188.0,0.98,-17.0627,-9.0748,-0.7471,2.0262,-0.9898
6194.0,2.1869,-15.4848,-4.6248,-0.2004,-0.7104,0.3957
6199.0,2.1869,-15.4848,-4.6248,-0.2004,-0.7104,0.3957
6203.0,2.1869,-15.4848,-4.6248,-0.2004,-0.7104,0.3957
6208.0,2.1869,-15.4848,-4.6248,-0.2004,-0.7104,0.3957
6213.0,2.1869,-15.4848,-4.6248,-0.2004,-0.7104,0.3957
6218.0,5.4915,-7.8627,1.8251,-0.2004,-0.7104,0.3957
6223.0,5.4915,-7.8627,1.8251,-0.2004,-0.7104,0.3957
6228.0,5.4915,-7.8627,1.8251,-0.6249,-3.3231,2.2552
6233.0,5.4915,-7.8627,1.8251,-0.6249,-3.3231,2.2552
6238.0,5.4915,-7.8627,1.8251,-0.6249,-3.3231,2.2552
6243.0,3.5088,-5.9417,2.0715,-0.6249,-3.3231,2.2552
6248.0,3.5088,-5.9417,2.0715,-0.6249,-3.3231,2.2552
6254.0,3.5088,-5.9417,2.0715,-0.6249,-3.3231,2.2552
6258.0,3.5088,-5.9417,2.0715,-0.7599,-2.719,2.4067
6263.0,3.5088,-5.9417,2.0715,-0.7599,-2.719,2.4067
6268.0,3.5088,-5.9417,2.0715,-0.7599,-2.719,2.4067
6274.0,-0.2412,-6.2086,-1.061,-0.7599,-2.719,2.4067
6278.0,-0.2412,-6.2086,-1.061,-0.7599,-2.719,2.4067
6283.0,-0.2412,-6.2086,-1.061,-0.7599,-2.719,2.4067
6288.0,-0.2412,-6.2086,-1.061,-0.2382,0.5223,0.155
6293.0,-0.2412,-6.2086,-1.061,-0.2382,0.5223,0.155
6299.0,2.6275,-10.4225,2.8582,-0.2382,0.5223,0.155
6303.0,2.6275,-10.4225,2.8582,-0.2382,0.5223,0.155
6308.0,2.6275,-10.4225,2.8582,-0.2382,0.5223,0.155
6314.0,2.6275,-10.4225,2.8582,-0.2382,0.5223,0.155
6318.0,2.6275,-10.4225,2.8582,-0.2382,0.5223,0.155
6323.0,2.6275,-10.4225,2.8582,-0.6542,2.9865,-0.9519
6328.0,5.0796,-16.2332,3.3131,-0.6542,2.9865,-0.9519
6334.0,5.0796,-16.2332,3.3131,-0.6542,2.9865,-0.9519
6339.0,5.0796,-16.2332,3.3131,-0.6542,2.9865,-0.9519
6343.0,5.0796,-16.2332,3.3131,-0.6542,2.9865,-0.9519
6348.0,5.0796,-16.2332,3.3131,-0.6542,2.9865,-0.9519
6353.0,2.7856,-17.363,-16.2971,0.4918,0.9016,-0.6031
6358.0,2.7856,-17.363,-16.2971,0.4918,0.9016,-0.6031
6363.0,2.7856,-17.363,-16.2971,0.4918,0.9016,-0.6031
6368.0,2.7856,-17.363,-16.2971,0.4918,0.9016,-0.6031
6373.0,2.7856,-17.363,-16.2971,0.4918,0.9016,-0.6031
6378.0,6.0614,-8.8542,0.3891,0.4918,0.9016,-0.6031
6383.0,6.0614,-8.8542,0.3891,0.1735,-0.9004,0.2405
6388.0,6.0614,-8.8542,0.3891,0.1735,-0.9004,0.2405
6394.0,6.0614,-8.8542,0.3891,0.1735,-0.9004,0.2405
6398.0,6.0614,-8.8542,0.3891,0.1735,-0.9004,0.2405
6403.0,6.0614,-8.8542,0.3891,0.1735,-0.9004,0.2405
6408.0,3.595,-4.7023,1.1142,0.1735,-0.9004,0.2405
6413.0,3.595,-4.7023,1.1142,0.1735,-0.9004,0.2405
6419.0,3.595,-4.7023,1.1142,-0.4148,-1.6133,0.5252
6424.0,3.595,-4.7023,1.1142,-0.4148,-1.6133,0.5252
6428.0,3.595,-4.7023,1.1142,-0.4148,-1.6133,0.5252
6433.0,3.4034,-5.5318,1.1995,-0.4148,-1.6133,0.5252
6439.0,3.4034,-5.5318,1.1995,-0.4148,-1.6133,0.5252
6443.0,3.4034,-5.5318,1.1995,0.0984,-1.5003,0.2588
6448.0,3.4034,-5.5318,1.1995,0.0984,-1.5003,0.2588
6453.0,3.4034,-5.5318,1.1995,0.0984,-1.5003,0.2588
6458.0,5.8219,-9.5359,2.2942,0.0984,-1.5003,0.2588
6463.0,5.8219,-9.5359,2.2942,0.0984,-1.5003,0.2588
6469.0,5.8219,-9.5359,2.2942,0.0984,-1.5003,0.2588
6473.0,5.8219,-9.5359,2.2942,0.0984,-1.5003,0.2588
6478.0,5.8219,-9.5359,2.2942,0.0678,0.1973,0.461
6483.0,5.8219,-9.5359,2.2942,0.0678,0.1973,0.461
6489.0,5.9034,-11.8478,1.9341,0.0678,0.1973,0.461
6494.0,5.9034,-11.8478,1.9341,0.0678,0.1973,0.461
6499.0,5.9034,-11.8478,1.9341,0.0678,0.1973,0.461
6503.0,5.9034,-11.8478,1.9341,0.0678,0.1973,0.461
6509.0,5.9034,-11.8478,1.9341,-0.2999,1.9542,0.9577
6514.0,3.8967,-7.9056,1.0052,-0.2999,1.9542,0.9577
6519.0,3.8967,-7.9056,1.0052,-0.2999,1.9542,0.9577
6523.0,3.8967,-7.9056,1.0052,-0.2999,1.9542,0.9577
6528.0,3.8967,-7.9056,1.0052,-0.2999,1.9542,0.9577
6533.0,3.8967,-7.9056,1.0052,-0.2999,1.9542,0.9577
6538.0,3.8967,-7.9056,1.0052,-0.2468,1.6347,0.8844
6543.0,2.7425,-3.2103,-19.9367,-0.2468,1.6347,0.8844
6548.0,2.7425,-3.2103,-19.9367,-0.2468,1.6347,0.8844
6554.0,2.7425,-3.2103,-19.9367,-0.2468,1.6347,0.8844
6558.0,2.7425,-3.2103,-19.9367,-0.2468,1.6347,0.8844
6563.0,2.7425,-3.2103,-19.9367,-0.2468,1.6347,0.8844
6568.0,3.0538,-6.447,-2.3974,-0.0599,-1.4746,0.2918
6574.0,3.0538,-6.447,-2.3974,-0.0599,-1.4746,0.2918
6579.0,3.0538,-6.447,-2.3974,-0.0599,-1.4746,0.2918
6584.0,3.0538,-6.447,-2.3974,-0.0599,-1.4746,0.2918
6589.0,3.0538,-6.447,-2.3974,-0.0599,-1.4746,0.2918
6593.0,1.4015,-8.1154,0.0953,-0.0599,-1.4746,0.2918
6598.0,1.4015,-8.1154,0.0953,0.3232,-2.2401,-0.071
6603.0,1.4015,-8.1154,0.0953,0.3232,-2.2401,-0.071
6609.0,1.4015,-8.1154,0.0953,0.3232,-2.2401,-0.071
6613.0,1.4015,-8.1154,0.0953,0.3232,-2.2401,-0.071
6618.0,1.4015,-8.1154,0.0953,0.3232,-2.2401,-0.071
6623.0,-0.6148,-7.0905,-0.6203,0.3232,-2.2401,-0.071
6628.0,-0.6148,-7.0905,-0.6203,0.3232,-2.2401,-0.071
6633.0,-0.6148,-7.0905,-0.6203,0.4019,-1.6396,-0.2286
6638.0,-0.6148,-7.0905,-0.6203,0.4019,-1.6396,-0.2286
6643.0,-0.6148,-7.0905,-0.6203,0.4019,-1.6396,-0.2286
6648.0,-2.9136,-6.652,-5.0513,0.4019,-1.6396,-0.2286
6653.0,-2.9136,-6.652,-5.0513,0.4019,-1.6396,-0.2286
6658.0,-2.9136,-6.652,-5.0513,0.4019,-1.6396,-0.2286
6665.0,-2.9136,-6.652,-5.0513,0.3983,-0.8039,-0.8114
6668.0,-2.9136,-6.652,-5.0513,0.3983,-0.8039,-0.8114
6674.0,-2.9136,-6.652,-5.0513,0.3983,-0.8039,-0.8114
6680.0,-0.0544,-8.6207,0.882,0.3983,-0.8039,-0.8114
6683.0,-0.0544,-8.6207,0.882,0.3983,-0.8039,-0.8114
6689.0,-0.0544,-8.6207,0.882,0.0385,1.0928,-1.6141
6693.0,-0.0544,-8.6207,0.882,0.0385,1.0928,-1.6141
6698.0,-0.0544,-8.6207,0.882,0.0385,1.0928,-1.6141
6703.0,3.0586,-7.9009,-2.7339,0.0385,1.0928,-1.6141
6709.0,3.0586,-7.9009,-2.7339,0.0385,1.0928,-1.6141
6713.0,3.0586,-7.9009,-2.7339,0.0385,1.0928,-1.6141
6718.0,3.0586,-7.9009,-2.7339,0.0385,1.0928,-1.6141
6723.0,3.0586,-7.9009,-2.7339,-0.2425,1.6493,-2.1089
6728.0,4.5241,-8.3299,-4.8333,-0.2425,1.6493,-2.1089
6733.0,4.5241,-8.3299,-4.8333,-0.2425,1.6493,-2.1089
6738.0,4.5241,-8.3299,-4.8333,-0.2425,1.6493,-2.1089
6743.0,4.5241,-8.3299,-4.8333,-0.2425,1.6493,-2.1089
6749.0,4.5241,-8.3299,-4.8333,-0.2425,1.6493,-2.1089
6753.0,4.5241,-8.3299,-4.8333,-0.2425,1.6493,-2.1089
6759.0,5.2233,-8.6207,-5.5394,-0.2871,0.1423,-2.1364
6764.0,5.2233,-8.6207,-5.5394,-0.2871,0.1423,-2.1364
6769.0,5.2233,-8.6207,-5.5394,-0.2871,0.1423,-2.1364
6773.0,5.2233,-8.6207,-5.5394,-0.2871,0.1423,-2.1364
6778.0,5.2233,-8.6207,-5.5394,-0.2871,0.1423,-2.1364
6784.0,5.4196,-11.9526,-4.0182,-0.2871,0.1423,-2.1364
6789.0,5.4196,-11.9526,-4.0182,0.2047,-1.2297,-2.567
6793.0,5.4196,-11.9526,-4.0182,0.2047,-1.2297,-2.567
6798.0,5.4196,-11.9526,-4.0182,0.2047,-1.2297,-2.567
6803.0,5.4196,-11.9526,-4.0182,0.2047,-1.2297,-2.567
6808.0,6.7223,-13.9166,-5.1888,0.2047,-1.2297,-2.567
6814.0,6.7223,-13.9166,-5.1888,0.2047,-1.2297,-2.567
6818.0,6.7223,-13.9166,-5.1888,0.7538,-0.8839,-3.1822
6823.0,6.7223,-13.9166,-5.1888,0.7538,-0.8839,-3.1822
6828.0,6.7223,-13.9166,-5.1888,0.7538,-0.8839,-3.1822
6833.0,6.7223,-13.9166,-5.1888,0.7538,-0.8839,-3.1822
6838.0,6.3152,-12.4532,-3.7765,0.7538,-0.8839,-3.1822
6843.0,6.3152,-12.4532,-3.7765,0.7538,-0.8839,-3.1822
6848.0,6.3152,-12.4532,-3.7765,0.5834,-0.0507,-2.8884
6853.0,6.3152,-12.4532,-3.7765,0.5834,-0.0507,-2.8884
6858.0,6.3152,-12.4532,-3.7765,0.5834,-0.0507,-2.8884
6863.0,5.8603,-10.7705,-3.4922,0.5834,-0.0507,-2.8884
6868.0,5.8603,-10.7705,-3.4922,0.5834,-0.0507,-2.8884
6873.0,5.8603,-10.7705,-3.4922,0.5834,-0.0507,-2.8884
6878.0,5.8603,-10.7705,-3.4922,0.5834,-0.0507,-2.8884
6883.0,5.8603,-10.7705,-3.4922,0.3311,-1.0385,-1.6642
6889.0,4.7013,-11.0708,-3.1083,0.3311,-1.0385,-1.6642
6894.0,4.7013,-11.0708,-3.1083,0.3311,-1.0385,-1.6642
6898.0,4.7013,-11.0708,-3.1083,0.3311,-1.0385,-1.6642
6903.0,4.7013,-11.0708,-3.1083,0.3311,-1.0385,-1.6642
6908.0,4.7013,-11.0708,-3.1083,0.3311,-1.0385,-1.6642
6913.0,4.7013,-11.0708,-3.1083,0.7172,-2.0904,-0.1339
6918.0,2.1869,-10.9564,-2.7766,0.7172,-2.0904,-0.1339
6924.0,2.1869,-10.9564,-2.7766,0.7172,-2.0904,-0.1339
6928.0,2.1869,-10.9564,-2.7766,0.7172,-2.0904,-0.1339
6933.0,2.1869,-10.9564,-2.7766,0.7172,-2.0904,-0.1339
6939.0,2.1869,-10.9564,-2.7766,0.7172,-2.0904,-0.1339
6944.0,2.7999,-10.0888,-3.6201,0.8625,-1.4276,0.2662
6948.0,2.7999,-10.0888,-3.6201,0.8625,-1.4276,0.2662
6953.0,2.7999,-10.0888,-3.6201,0.8625,-1.4276,0.2662
6959.0,2.7999,-10.0888,-3.6201,0.8625,-1.4276,0.2662
6963.0,2.7999,-10.0888,-3.6201,0.8625,-1.4276,0.2662
6968.0,2.7999,-10.0888,-3.6201,0.8625,-1.4276,0.2662
6973.0,3.7578,-8.5158,-4.4305,0.6017,0.295,0.2002
6979.0,3.7578,-8.5158,-4.4305,0.6017,0.295,0.2002
6983.0,3.7578,-8.5158,-4.4305,0.6017,0.295,0.2002
6989.0,3.7578,-8.5158,-4.4305,0.6017,0.295,0.2002
6993.0,3.7578,-8.5158,-4.4305,0.6017,0.295,0.2002
6998.0,3.1352,-6.4804,-4.7101,0.6017,0.295,0.2002
7003.0,3.1352,-6.4804,-4.7101,0.6017,0.295,0.2002
7008.0,3.1352,-6.4804,-4.7101,0.6726,1.449,0.651
7013.0,3.1352,-6.4804,-4.7101,0.6726,1.449,0.651
7018.0,3.1352,-6.4804,-4.7101,0.6726,1.449,0.651
7023.0,1.6984,-4.9407,-4.2125,0.6726,1.449,0.651
7028.0,1.6984,-4.9407,-4.2125,0.6726,1.449,0.651
7033.0,1.6984,-4.9407,-4.2125,0.6726,1.449,0.651
7038.0,1.6984,-4.9407,-4.2125,0.223,1.1332,1.5423
7043.0,1.6984,-4.9407,-4.2125,0.223,1.1332,1.5423
7048.0,1.6984,-4.9407,-4.2125,0.223,1.1332,1.5423
7053.0,1.3105,-4.8167,-2.3169,0.223,1.1332,1.5423
7058.0,1.3105,-4.8167,-2.3169,0.223,1.1332,1.5423
7063.0,1.3105,-4.8167,-2.3169,0.223,1.1332,1.5423
7069.0,1.3105,-4.8167,-2.3169,0.0263,1.135,2.2155
7073.0,1.3105,-4.8167,-2.3169,0.0263,1.135,2.2155
7079.0,1.5979,-4.8024,-1.1795,0.0263,1.135,2.2155
7083.0,1.5979,-4.8024,-1.1795,0.0263,1.135,2.2155
7088.0,1.5979,-4.8024,-1.1795,0.0263,1.135,2.2155
7094.0,1.5979,-4.8024,-1.1795,0.0263,1.135,2.2155
7099.0,1.5979,-4.8024,-1.1795,-0.0159,1.4313,2.6058
7103.0,1.5979,-4.8024,-1.1795,-0.0159,1.4313,2.6058
7109.0,3.6045,-4.7834,-0.8573,-0.0159,1.4313,2.6058
7113.0,3.6045,-4.7834,-0.8573,-0.0159,1.4313,2.6058
7122.0,3.6045,-4.7834,-0.8573,-0.0159,1.4313,2.6058
7124.0,3.6045,-4.7834,-0.8573,-0.0159,1.4313,2.6058
7129.0,3.6045,-4.7834,-0.8573,-0.0159,1.4313,2.6058
7133.0,4.7875,-5.098,-2.061,-0.1026,1.5919,2.6009
7138.0,4.7875,-5.098,-2.061,-0.1026,1.5919,2.6009
7143.0,4.7875,-5.098,-2.061,-0.1026,1.5919,2.6009
7148.0,4.7875,-5.098,-2.061,-0.1026,1.5919,2.6009
7153.0,4.7875,-5.098,-2.061,-0.1026,1.5919,2.6009
7158.0,4.7875,-5.098,-2.061,-0.1026,1.5919,2.6009
7163.0,2.4408,-5.3173,-0.5208,-0.0977,1.879,1.9809
7169.0,2.4408,-5.3173,-0.5208,-0.0977,1.879,1.9809
7173.0,2.4408,-5.3173,-0.5208,-0.0977,1.879,1.9809
7178.0,2.4408,-5.3173,-0.5208,-0.0977,1.879,1.9809
7183.0,2.4408,-5.3173,-0.5208,-0.0977,1.879,1.9809
7188.0,0.8555,-5.813,-1.2932,-0.0977,1.879,1.9809
7194.0,0.8555,-5.813,-1.2932,-0.3946,1.7587,0.8893
7198.0,0.8555,-5.813,-1.2932,-0.3946,1.7587,0.8893
7203.0,0.8555,-5.813,-1.2932,-0.3946,1.7587,0.8893
7208.0,0.8555,-5.813,-1.2932,-0.3946,1.7587,0.8893
7214.0,-0.586,-8.3203,-7.3119,-0.3946,1.7587,0.8893
7218.0,-0.586,-8.3203,-7.3119,-0.3946,1.7587,0.8893
7223.0,-0.586,-8.3203,-7.3119,0.2046,2.7342,-1.4943
7228.0,-0.586,-8.3203,-7.3119,0.2046,2.7342,-1.4943
7233.0,-0.586,-8.3203,-7.3119,0.2046,2.7342,-1.4943
7238.0,-0.586,-8.3203,-7.3119,0.2046,2.7342,-1.4943
7243.0,6.8708,-2.7861,-8.4018,0.2046,2.7342,-1.4943
7248.0,6.8708,-2.7861,-8.4018,0.2046,2.7342,-1.4943
7253.0,6.8708,-2.7861,-8.4018,0.2046,2.7342,-1.4943
7258.0,6.8708,-2.7861,-8.4018,0.2046,2.7342,-1.4943
7263.0,6.8708,-2.7861,-8.4018,0.1716,2.9566,-1.9659
7268.0,6.8708,-2.7861,-8.4018,0.1716,2.9566,-1.9659
7274.0,8.6763,-2.419,-9.0226,0.1716,2.9566,-1.9659
7278.0,8.6763,-2.419,-9.0226,0.1716,2.9566,-1.9659
7283.0,8.6763,-2.419,-9.0226,0.1716,2.9566,-1.9659
7288.0,8.6763,-2.419,-9.0226,0.1716,2.9566,-1.9659
7293.0,8.6763,-2.419,-9.0226,-0.9939,-3.7074,-0.2127
7298.0,7.6514,-12.5485,3.1378,-0.9939,-3.7074,-0.2127
7303.0,7.6514,-12.5485,3.1378,-0.9939,-3.7074,-0.2127
7308.0,7.6514,-12.5485,3.1378,-0.9939,-3.7074,-0.2127
7313.0,7.6514,-12.5485,3.1378,-0.9939,-3.7074,-0.2127
7318.0,7.6514,-12.5485,3.1378,-0.9939,-3.7074,-0.2127
7323.0,7.6514,-12.5485,3.1378,0.1539,-1.5754,1.3743
7328.0,11.9761,-19.2649,6.0665,0.1539,-1.5754,1.3743
7334.0,11.9761,-19.2649,6.0665,0.1539,-1.5754,1.3743
7338.0,11.9761,-19.2649,6.0665,0.1539,-1.5754,1.3743
7344.0,11.9761,-19.2649,6.0665,0.1539,-1.5754,1.3743
7348.0,11.9761,-19.2649,6.0665,0.1539,-1.5754,1.3743
7354.0,3.0538,-16.8863,-3.2647,-0.3409,0.127,1.034
7358.0,3.0538,-16.8863,-3.2647,-0.3409,0.127,1.034
7363.0,3.0538,-16.8863,-3.2647,-0.3409,0.127,1.034
7368.0,3.0538,-16.8863,-3.2647,-0.3409,0.127,1.034
7373.0,3.0538,-16.8863,-3.2647,-0.3409,0.127,1.034
7378.0,3.0538,-16.8863,-3.2647,-0.3409,0.127,1.034
7383.0,-0.0975,-26.3007,-10.4444,0.328,-2.1081,-2.0948
7389.0,-0.0975,-26.3007,-10.4444,0.328,-2.1081,-2.0948
7393.0,-0.0975,-26.3007,-10.4444,0.328,-2.1081,-2.0948
7398.0,-0.0975,-26.3007,-10.4444,0.328,-2.1081,-2.0948
7403.0,-0.0975,-26.3007,-10.4444,0.328,-2.1081,-2.0948
7408.0,1.4829,-11.2996,-0.2744,0.328,-2.1081,-2.0948
7413.0,1.4829,-11.2996,-0.2744,0.091,0.1423,-0.7112
7418.0,1.4829,-11.2996,-0.2744,0.091,0.1423,-0.7112
7423.0,1.4829,-11.2996,-0.2744,0.091,0.1423,-0.7112
7428.0,1.4829,-11.2996,-0.2744,0.091,0.1423,-0.7112
7433.0,1.4829,-11.2996,-0.2744,0.091,0.1423,-0.7112
7439.0,2.2157,-6.4184,2.8108,0.091,0.1423,-0.7112
7443.0,2.2157,-6.4184,2.8108,0.5455,-0.4545,-0.305
7448.0,2.2157,-6.4184,2.8108,0.5455,-0.4545,-0.305
7453.0,2.2157,-6.4184,2.8108,0.5455,-0.4545,-0.305
7458.0,2.2157,-6.4184,2.8108,0.5455,-0.4545,-0.305
7464.0,3.1496,-8.7351,3.6259,0.5455,-0.4545,-0.305
7469.0,3.1496,-8.7351,3.6259,0.5455,-0.4545,-0.305
7474.0,3.1496,-8.7351,3.6259,0.0867,0.3042,0.2442
7478.0,3.1496,-8.7351,3.6259,0.0867,0.3042,0.2442
7483.0,3.1496,-8.7351,3.6259,0.0867,0.3042,0.2442
7488.0,7.2731,-15.1845,4.5121,0.0867,0.3042,0.2442
7493.0,7.2731,-15.1845,4.5121,0.0867,0.3042,0.2442
7498.0,7.2731,-15.1845,4.5121,0.0867,0.3042,0.2442
7503.0,7.2731,-15.1845,4.5121,0.0867,0.3042,0.2442
7509.0,7.2731,-15.1845,4.5121,0.1014,3.1411,2.0243
7513.0,7.2731,-15.1845,4.5121,0.1014,3.1411,2.0243
7518.0,6.9714,-12.5723,0.8109,0.1014,3.1411,2.0243
7524.0,6.9714,-12.5723,0.8109,0.1014,3.1411,2.0243
7529.0,6.9714,-12.5723,0.8109,0.1014,3.1411,2.0243
7534.0,6.9714,-12.5723,0.8109,0.1014,3.1411,2.0243
7538.0,6.9714,-12.5723,0.8109,-0.058,3.642,2.706
7543.0,5.7549,-6.6949,-7.5678,-0.058,3.642,2.706
7548.0,5.7549,-6.6949,-7.5678,-0.058,3.642,2.706
7553.0,5.7549,-6.6949,-7.5678,-0.058,3.642,2.706
7558.0,5.7549,-6.6949,-7.5678,-0.058,3.642,2.706
7564.0,5.7549,-6.6949,-7.5678,-0.058,3.642,2.706
7568.0,5.7549,-6.6949,-7.5678,-0.868,1.7587,0.3786
7573.0,6.3248,-6.4947,-1.9093,-0.868,1.7587,0.3786
7579.0,6.3248,-6.4947,-1.9093,-0.868,1.7587,0.3786
7583.0,6.3248,-6.4947,-1.9093,-0.868,1.7587,0.3786
7588.0,6.3248,-6.4947,-1.9093,-0.868,1.7587,0.3786
7593.0,6.3248,-6.4947,-1.9093,-0.868,1.7587,0.3786
7598.0,3.8679,-7.1525,-1.5871,-0.7935,1.1478,0.7585
7603.0,3.8679,-7.1525,-1.5871,-0.7935,1.1478,0.7585
7608.0,3.8679,-7.1525,-1.5871,-0.7935,1.1478,0.7585
7613.0,3.8679,-7.1525,-1.5871,-0.7935,1.1478,0.7585
7618.0,3.8679,-7.1525,-1.5871,-0.7935,1.1478,0.7585
7623.0,3.8679,-7.1525,-1.5871,-0.7935,1.1478,0.7585
7628.0,-0.0688,-4.9788,-6.1982,-0.5406,-0.2175,0.8654
7633.0,-0.0688,-4.9788,-6.1982,-0.5406,-0.2175,0.8654
7638.0,-0.0688,-4.9788,-6.1982,-0.5406,-0.2175,0.8654
7643.0,-0.0688,-4.9788,-6.1982,-0.5406,-0.2175,0.8654
7648.0,-0.0688,-4.9788,-6.1982,-0.5406,-0.2175,0.8654
7653.0,-0.5908,-6.1276,-1.7435,-0.5406,-0.2175,0.8654
7658.0,-0.5908,-6.1276,-1.7435,0.1228,-1.7654,0.5881
7663.0,-0.5908,-6.1276,-1.7435,0.1228,-1.7654,0.5881
7668.0,-0.5908,-6.1276,-1.7435,0.1228,-1.7654,0.5881
7673.0,-0.5908,-6.1276,-1.7435,0.1228,-1.7654,0.5881
7679.0,-1.4912,-4.9168,-1.5823,0.1228,-1.7654,0.5881
7683.0,-1.4912,-4.9168,-1.5823,0.1228,-1.7654,0.5881
7689.0,-1.4912,-4.9168,-1.5823,0.576,-1.975,0.0072
7693.0,-1.4912,-4.9168,-1.5823,0.576,-1.975,0.0072
7698.0,-1.4912,-4.9168,-1.5823,0.576,-1.975,0.0072
7703.0,0.8651,-6.6043,-5.3878,0.576,-1.975,0.0072
7708.0,0.8651,-6.6043,-5.3878,0.576,-1.975,0.0072
7713.0,0.8651,-6.6043,-5.3878,0.576,-1.975,0.0072
7719.0,0.8651,-6.6043,-5.3878,0.576,-1.975,0.0072
7724.0,0.8651,-6.6043,-5.3878,0.2529,-0.5705,-1.633
7728.0,2.23,-5.2505,-0.4355,0.2529,-0.5705,-1.633
7733.0,2.23,-5.2505,-0.4355,0.2529,-0.5705,-1.633
7738.0,2.23,-5.2505,-0.4355,0.2529,-0.5705,-1.633
7744.0,2.23,-5.2505,-0.4355,0.2529,-0.5705,-1.633
7748.0,2.23,-5.2505,-0.4355,0.2529,-0.5705,-1.633
7753.0,2.23,-5.2505,-0.4355,0.2529,-0.5705,-1.633
7758.0,3.3842,-4.0207,-2.3453,0.2083,0.6219,-2.8499
7763.0,3.3842,-4.0207,-2.3453,0.2083,0.6219,-2.8499
7768.0,3.3842,-4.0207,-2.3453,0.2083,0.6219,-2.8499
7773.0,3.3842,-4.0207,-2.3453,0.2083,0.6219,-2.8499
7778.0,3.3842,-4.0207,-2.3453,0.2083,0.6219,-2.8499
7783.0,2.9484,-7.5767,0.8725,0.2083,0.6219,-2.8499
7788.0,2.9484,-7.5767,0.8725,-0.1026,1.4343,-1.7961
7793.0,2.9484,-7.5767,0.8725,-0.1026,1.4343,-1.7961
7799.0,2.9484,-7.5767,0.8725,-0.1026,1.4343,-1.7961
7803.0,2.9484,-7.5767,0.8725,-0.1026,1.4343,-1.7961
7808.0,3.6093,-6.7235,-3.1225,-0.1026,1.4343,-1.7961
7813.0,3.6093,-6.7235,-3.1225,-0.1026,1.4343,-1.7961
7818.0,3.6093,-6.7235,-3.1225,-0.416,0.2511,-1.2695
7823.0,3.6093,-6.7235,-3.1225,-0.416,0.2511,-1.2695
7828.0,3.6093,-6.7235,-3.1225,-0.416,0.2511,-1.2695
7834.0,3.6093,-6.7235,-3.1225,-0.416,0.2511,-1.2695
7838.0,4.5624,-9.6169,-4.312,-0.416,0.2511,-1.2695
7843.0,4.5624,-9.6169,-4.312,-0.416,0.2511,-1.2695
7848.0,4.5624,-9.6169,-4.312,-0.416,0.2511,-1.2695
7853.0,4.5624,-9.6169,-4.312,0.0641,-0.8485,-1.4272
7858.0,4.5624,-9.6169,-4.312,0.0641,-0.8485,-1.4272
7863.0,4.5624,-9.6169,-4.312,0.0641,-0.8485,-1.4272
7869.0,4.5528,-15.6422,-2.5017,0.0641,-0.8485,-1.4272
7874.0,4.5528,-15.6422,-2.5017,0.0641,-0.8485,-1.4272
7878.0,4.5528,-15.6422,-2.5017,0.0641,-0.8485,-1.4272
7883.0,4.5528,-15.6422,-2.5017,0.7233,-1.1216,-2.4461
7888.0,4.5528,-15.6422,-2.5017,0.7233,-1.1216,-2.4461
7893.0,6.9474,-16.0092,-4.8002,0.7233,-1.1216,-2.4461
7898.0,6.9474,-16.0092,-4.8002,0.7233,-1.1216,-2.4461
7903.0,6.9474,-16.0092,-4.8002,0.7233,-1.1216,-2.4461
7908.0,6.9474,-16.0092,-4.8002,0.7233,-1.1216,-2.4461
7913.0,6.9474,-16.0092,-4.8002,0.7233,-1.1216,-2.4461
7919.0,6.9474,-16.0092,-4.8002,0.3616,0.3433,-3.1437
7923.0,6.5834,-11.3187,-2.7434,0.3616,0.3433,-3.1437
7928.0,6.5834,-11.3187,-2.7434,0.3616,0.3433,-3.1437
7933.0,6.5834,-11.3187,-2.7434,0.3616,0.3433,-3.1437
7938.0,6.5834,-11.3187,-2.7434,0.3616,0.3433,-3.1437
7943.0,6.5834,-11.3187,-2.7434,0.1301,0.694,-2.5921
7948.0,6.5834,-11.3187,-2.7434,0.1301,0.694,-2.5921
7953.0,10.5968,-14.7841,-8.3923,0.1301,0.694,-2.5921
7958.0,10.5968,-14.7841,-8.3923,0.1301,0.694,-2.5921
7963.0,10.5968,-14.7841,-8.3923,0.1301,0.694,-2.5921
7968.0,10.5968,-14.7841,-8.3923,0.1301,0.694,-2.5921
7973.0,10.5968,-14.7841,-8.3923,0.3042,-1.5125,-0.5878
7979.0,10.5968,-14.7841,-8.3923,0.3042,-1.5125,-0.5878
7983.0,8.4177,-13.6163,-6.6199,0.3042,-1.5125,-0.5878
7988.0,8.4177,-13.6163,-6.6199,0.3042,-1.5125,-0.5878
7993.0,8.4177,-13.6163,-6.6199,0.3042,-1.5125,-0.5878
7998.0,8.4177,-13.6163,-6.6199,0.3042,-1.5125,-0.5878
8003.0,8.4177,-13.6163,-6.6199,0.2816,-1.8943,0.3535
8008.0,4.4331,-7.6434,-3.2742,0.2816,-1.8943,0.3535
8013.0,4.4331,-7.6434,-3.2742,0.2816,-1.8943,0.3535
8019.0,4.4331,-7.6434,-3.2742,0.2816,-1.8943,0.3535
8024.0,4.4331,-7.6434,-3.2742,0.2816,-1.8943,0.3535
8029.0,4.4331,-7.6434,-3.2742,0.2816,-1.8943,0.3535
8033.0,3.4752,-4.7405,-1.3691,0.2816,-1.8943,0.3535
8039.0,3.4752,-4.7405,-1.3691,-0.4288,-1.565,0.4415
8043.0,3.4752,-4.7405,-1.3691,-0.4288,-1.565,0.4415
8048.0,3.4752,-4.7405,-1.3691,-0.4288,-1.565,0.4415
8053.0,3.4752,-4.7405,-1.3691,-0.4288,-1.565,0.4415
8058.0,3.4752,-4.7405,-1.3691,-0.4288,-1.565,0.4415
8064.0,3.9398,-6.5757,-1.5302,-0.4288,-1.565,0.4415
8068.0,3.9398,-6.5757,-1.5302,-0.9872,-1.2156,0.604
8074.0,3.9398,-6.5757,-1.5302,-0.9872,-1.2156,0.604
8079.0,3.9398,-6.5757,-1.5302,-0.9872,-1.2156,0.604
8084.0,3.9398,-6.5757,-1.5302,-0.9872,-1.2156,0.604
8088.0,3.571,-9.4262,-2.5965,-0.9872,-1.2156,0.604
8093.0,3.571,-9.4262,-2.5965,-0.9872,-1.2156,0.604
8098.0,3.571,-9.4262,-2.5965,-0.0092,-0.3848,1.3951
8104.0,3.571,-9.4262,-2.5965,-0.0092,-0.3848,1.3951
8109.0,3.571,-9.4262,-2.5965,-0.0092,-0.3848,1.3951
8114.0,2.0816,-6.8855,-4.44,-0.0092,-0.3848,1.3951
8119.0,2.0816,-6.8855,-4.44,-0.0092,-0.3848,1.3951
8123.0,2.0816,-6.8855,-4.44,-0.0092,-0.3848,1.3951
8128.0,2.0816,-6.8855,-4.44,0.1436,0.325,1.5148
8133.0,2.0816,-6.8855,-4.44,0.1436,0.325,1.5148
8138.0,0.4149,-5.9131,-4.004,0.1436,0.325,1.5148
8143.0,0.4149,-5.9131,-4.004,0.1436,0.325,1.5148
8148.0,0.4149,-5.9131,-4.004,0.1436,0.325,1.5148
8153.0,0.4149,-5.9131,-4.004,0.1436,0.325,1.5148
8158.0,0.4149,-5.9131,-4.004,0.0312,0.9505,1.3749
8163.0,0.4149,-5.9131,-4.004,0.0312,0.9505,1.3749
8168.0,0.4149,-5.9131,-4.004,0.0312,0.9505,1.3749
8173.0,1.4015,-5.2934,-1.5823,0.0312,0.9505,1.3749
8179.0,1.4015,-5.2934,-1.5823,0.0312,0.9505,1.3749
8183.0,1.4015,-5.2934,-1.5823,0.0312,0.9505,1.3749
8189.0,1.4015,-5.2934,-1.5823,-0.1106,1.325,1.337
8193.0,1.4015,-5.2934,-1.5823,-0.1106,1.325,1.337
8199.0,3.8919,-5.3792,0.0526,-0.1106,1.325,1.337
8204.0,3.8919,-5.3792,0.0526,-0.1106,1.325,1.337
8208.0,3.8919,-5.3792,0.0526,-0.1106,1.325,1.337
8213.0,3.8919,-5.3792,0.0526,-0.1106,1.325,1.337
8218.0,3.8919,-5.3792,0.0526,0.0843,1.6072,1.4018
8223.0,3.5758,-4.321,-0.7957,0.0843,1.6072,1.4018
8229.0,3.5758,-4.321,-0.7957,0.0843,1.6072,1.4018
8233.0,3.5758,-4.321,-0.7957,0.0843,1.6072,1.4018
8238.0,3.5758,-4.321,-0.7957,0.0843,1.6072,1.4018
8243.0,3.5758,-4.321,-0.7957,0.0843,1.6072,1.4018
8249.0,3.5758,-4.321,-0.7957,-0.0641,1.785,0.7921
8253.0,2.503,-2.2474,-4.4731,-0.0641,1.785,0.7921
8259.0,2.503,-2.2474,-4.4731,-0.0641,1.785,0.7921
8263.0,2.503,-2.2474,-4.4731,-0.0641,1.785,0.7921
8268.0,2.503,-2.2474,-4.4731,-0.0641,1.785,0.7921
8273.0,2.503,-2.2474,-4.4731,-0.0641,1.785,0.7921
8278.0,0.5442,-7.5291,-1.7956,-0.2486,1.0977,0.7188
8284.0,0.5442,-7.5291,-1.7956,-0.2486,1.0977,0.7188
8288.0,0.5442,-7.5291,-1.7956,-0.2486,1.0977,0.7188
8293.0,0.5442,-7.5291,-1.7956,-0.2486,1.0977,0.7188
8298.0,0.5442,-7.5291,-1.7956,-0.2486,1.0977,0.7188
8303.0,0.5442,-7.5291,-1.7956,-0.2486,1.0977,0.7188
8308.0,1.0854,-8.5396,0.2849,-0.2486,1.0977,0.7188
8314.0,1.0854,-8.5396,0.2849,0.1839,0.8338,1.4592
8319.0,1.0854,-8.5396,0.2849,0.1839,0.8338,1.4592
8323.0,1.0854,-8.5396,0.2849,0.1839,0.8338,1.4592
8328.0,1.0854,-8.5396,0.2849,0.1839,0.8338,1.4592
8333.0,1.0854,-8.5396,0.2849,0.1839,0.8338,1.4592
8338.0,3.9494,-5.4745,-1.0468,0.1839,0.8338,1.4592
8343.0,3.9494,-5.4745,-1.0468,0.3885,0.7312,0.75
8348.0,3.9494,-5.4745,-1.0468,0.3885,0.7312,0.75
8354.0,3.9494,-5.4745,-1.0468,0.3885,0.7312,0.75
8358.0,3.9494,-5.4745,-1.0468,0.3885,0.7312,0.75
8363.0,7.91,-4.6833,-3.9993,0.3885,0.7312,0.75
8368.0,7.91,-4.6833,-3.9993,0.3885,0.7312,0.75
8373.0,7.91,-4.6833,-3.9993,-0.2168,1.8864,-1.352
8378.0,7.91,-4.6833,-3.9993,-0.2168,1.8864,-1.352
8383.0,7.91,-4.6833,-3.9993,-0.2168,1.8864,-1.352
8388.0,10.0844,-7.4337,-13.8944,-0.2168,1.8864,-1.352
8393.0,10.0844,-7.4337,-13.8944,-0.2168,1.8864,-1.352
8398.0,10.0844,-7.4337,-13.8944,-0.2168,1.8864,-1.352
8404.0,10.0844,-7.4337,-13.8944,0.1393,-0.8436,-0.922
8409.0,10.0844,-7.4337,-13.8944,0.1393,-0.8436,-0.922
8414.0,10.5633,-11.3616,-9.8994,0.1393,-0.8436,-0.922
8418.0,10.5633,-11.3616,-9.8994,0.1393,-0.8436,-0.922
8424.0,10.5633,-11.3616,-9.8994,0.1393,-0.8436,-0.922
8428.0,10.5633,-11.3616,-9.8994,0.1393,-0.8436,-0.922
8433.0,10.5633,-11.3616,-9.8994,0.1393,-0.8436,-0.922
8438.0,10.5633,-11.3616,-9.8994,-0.5705,-6.069,1.0475
8443.0,8.3985,-12.1195,1.5881,-0.5705,-6.069,1.0475
8448.0,8.3985,-12.1195,1.5881,-0.5705,-6.069,1.0475
8454.0,8.3985,-12.1195,1.5881,-0.5705,-6.069,1.0475
8458.0,8.3985,-12.1195,1.5881,-0.5705,-6.069,1.0475
8463.0,8.3985,-12.1195,1.5881,-0.5705,-6.069,1.0475
8468.0,8.7673,-11.6952,7.365,-0.5076,-5.6566,2.4048
8473.0,8.7673,-11.6952,7.365,-0.5076,-5.6566,2.4048
8478.0,8.7673,-11.6952,7.365,-0.5076,-5.6566,2.4048
8483.0,8.7673,-11.6952,7.365,-0.5076,-5.6566,2.4048
8488.0,8.7673,-11.6952,7.365,-0.5076,-5.6566,2.4048
8493.0,8.7673,-11.6952,7.365,-0.5076,-5.6566,2.4048
8498.0,2.5605,-8.3537,1.5075,-0.5076,-5.6566,2.4048
8503.0,2.5605,-8.3537,1.5075,-0.7923,-0.4893,0.885
8508.0,2.5605,-8.3537,1.5075,-0.7923,-0.4893,0.885
8515.0,2.5605,-8.3537,1.5075,-0.7923,-0.4893,0.885
8518.0,2.5605,-8.3537,1.5075,-0.7923,-0.4893,0.885
8523.0,2.0193,-8.8733,3.7444,-0.7923,-0.4893,0.885
8529.0,2.0193,-8.8733,3.7444,-0.7923,-0.4893,0.885
8533.0,2.0193,-8.8733,3.7444,-1.0171,1.3873,-1.6868
8539.0,2.0193,-8.8733,3.7444,-1.0171,1.3873,-1.6868
8543.0,2.0193,-8.8733,3.7444,-1.0171,1.3873,-1.6868
8549.0,1.0615,-20.49,-0.7957,-1.0171,1.3873,-1.6868
8553.0,1.0615,-20.49,-0.7957,-1.0171,1.3873,-1.6868
8558.0,1.0615,-20.49,-0.7957,-1.0171,1.3873,-1.6868
8563.0,1.0615,-20.49,-0.7957,-0.2309,3.0275,-0.9458
8569.0,1.0615,-20.49,-0.7957,-0.2309,3.0275,-0.9458
8573.0,1.0615,-20.49,-0.7957,-0.2309,3.0275,-0.9458
8579.0,-0.95,-20.552,-7.999,-0.2309,3.0275,-0.9458
8583.0,-0.95,-20.552,-7.999,-0.2309,3.0275,-0.9458
8588.0,-0.95,-20.552,-7.999,-0.2309,3.0275,-0.9458
8593.0,-0.95,-20.552,-7.999,0.5797,-0.8913,-0.1248
8599.0,-0.95,-20.552,-7.999,0.5797,-0.8913,-0.1248
8603.0,2.8143,-8.5873,2.2137,0.5797,-0.8913,-0.1248
8608.0,2.8143,-8.5873,2.2137,0.5797,-0.8913,-0.1248
8613.0,2.8143,-8.5873,2.2137,0.5797,-0.8913,-0.1248
8618.0,2.8143,-8.5873,2.2137,0.5797,-0.8913,-0.1248
8624.0,2.8143,-8.5873,2.2137,0.2431,-0.1283,1.2423
8629.0,3.4848,-5.8273,1.6023,0.2431,-0.1283,1.2423
8633.0,3.4848,-5.8273,1.6023,0.2431,-0.1283,1.2423
8638.0,3.4848,-5.8273,1.6023,0.2431,-0.1283,1.2423
8644.0,3.4848,-5.8273,1.6023,0.2431,-0.1283,1.2423
8649.0,3.4848,-5.8273,1.6023,0.2431,-0.1283,1.2423
8653.0,5.4819,-7.8103,0.1569,0.2431,-0.1283,1.2423
8658.0,5.4819,-7.8103,0.1569,-0.1949,0.5394,1.9546
8663.0,5.4819,-7.8103,0.1569,-0.1949,0.5394,1.9546
8669.0,5.4819,-7.8103,0.1569,-0.1949,0.5394,1.9546
8674.0,5.4819,-7.8103,0.1569,-0.1949,0.5394,1.9546
8679.0,5.4819,-7.8103,0.1569,-0.1949,0.5394,1.9546
8684.0,4.4618,-12.1576,-3.4448,-0.1949,0.5394,1.9546
8688.0,4.4618,-12.1576,-3.4448,0.1155,0.0073,0.8502
8694.0,4.4618,-12.1576,-3.4448,0.1155,0.0073,0.8502
8698.0,4.4618,-12.1576,-3.4448,0.1155,0.0073,0.8502
8703.0,4.4618,-12.1576,-3.4448,0.1155,0.0073,0.8502
8708.0,2.9484,-9.5311,-0.5919,0.1155,0.0073,0.8502
8713.0,2.9484,-9.5311,-0.5919,0.1155,0.0073,0.8502
8718.0,2.9484,-9.5311,-0.5919,0.1155,0.0073,0.8502
8723.0,2.9484,-9.5311,-0.5919,-0.0935,1.1503,0.9393
8728.0,2.9484,-9.5311,-0.5919,-0.0935,1.1503,0.9393
8733.0,2.9484,-9.5311,-0.5919,-0.0935,1.1503,0.9393
8738.0,4.1936,-6.6996,-2.478,-0.0935,1.1503,0.9393
8743.0,4.1936,-6.6996,-2.478,-0.0935,1.1503,0.9393
8749.0,4.1936,-6.6996,-2.478,-0.0935,1.1503,0.9393
8754.0,4.1936,-6.6996,-2.478,-0.3671,1.5479,0.2527
8758.0,4.1936,-6.6996,-2.478,-0.3671,1.5479,0.2527
8764.0,3.9829,-6.528,-3.151,-0.3671,1.5479,0.2527
8768.0,3.9829,-6.528,-3.151,-0.3671,1.5479,0.2527
8773.0,3.9829,-6.528,-3.151,-0.3671,1.5479,0.2527
8778.0,3.9829,-6.528,-3.151,-0.3671,1.5479,0.2527
8783.0,3.9829,-6.528,-3.151,-0.3671,1.5479,0.2527
8788.0,3.9829,-6.528,-3.151,-0.474,0.7807,0.2142
8793.0,1.5212,-6.9332,-4.3878,-0.474,0.7807,0.2142
8798.0,1.5212,-6.9332,-4.3878,-0.474,0.7807,0.2142
8804.0,1.5212,-6.9332,-4.3878,-0.474,0.7807,0.2142
8808.0,1.5212,-6.9332,-4.3878,-0.474,0.7807,0.2142
8813.0,1.5212,-6.9332,-4.3878,-0.474,0.7807,0.2142
8819.0,-0.0209,-8.5634,-2.9946,-0.1307,-1.0519,0.3169
8823.0,-0.0209,-8.5634,-2.9946,-0.1307,-1.0519,0.3169
8828.0,-0.0209,-8.5634,-2.9946,-0.1307,-1.0519,0.3169
8833.0,-0.0209,-8.5634,-2.9946,-0.1307,-1.0519,0.3169
8838.0,-0.0209,-8.5634,-2.9946,-0.1307,-1.0519,0.3169
8843.0,-0.0736,-7.0619,-1.6724,-0.1307,-1.0519,0.3169
8848.0,-0.0736,-7.0619,-1.6724,0.1936,-1.1717,-0.0857
8853.0,-0.0736,-7.0619,-1.6724,0.1936,-1.1717,-0.0857
8858.0,-0.0736,-7.0619,-1.6724,0.1936,-1.1717,-0.0857
8864.0,-0.0736,-7.0619,-1.6724,0.1936,-1.1717,-0.0857
8868.0,0.9082,-4.8167,-2.7339,0.1936,-1.1717,-0.0857
8873.0,0.9082,-4.8167,-2.7339,0.1936,-1.1717,-0.0857
8879.0,0.9082,-4.8167,-2.7339,0.1936,-1.1717,-0.0857
8883.0,0.9082,-4.8167,-2.7339,0.0415,0.0366,-1.0325
8888.0,0.9082,-4.8167,-2.7339,0.0415,0.0366,-1.0325
8894.0,0.9082,-4.8167,-2.7339,0.0415,0.0366,-1.0325
8898.0,2.4551,-8.4872,-2.2695,0.0415,0.0366,-1.0325
8903.0,2.4551,-8.4872,-2.2695,0.0415,0.0366,-1.0325
8909.0,2.4551,-8.4872,-2.2695,0.0415,0.0366,-1.0325
8913.0,2.4551,-8.4872,-2.2695,-0.2217,0.7202,-1.6129
8918.0,2.4551,-8.4872,-2.2695,-0.2217,0.7202,-1.6129
8923.0,2.4551,-8.4872,-2.2695,-0.2217,0.7202,-1.6129
8928.0,2.4551,-8.4872,-2.2695,-0.2217,0.7202,-1.6129
8933.0,1.4207,-8.8065,-1.17,-0.2217,0.7202,-1.6129
8938.0,1.4207,-8.8065,-1.17,-0.2217,0.7202,-1.6129
8943.0,1.4207,-8.8065,-1.17,-0.2217,0.7202,-1.6129
8948.0,1.4207,-8.8065,-1.17,-0.2205,1.0757,-1.7002
8953.0,1.4207,-8.8065,-1.17,-0.2205,1.0757,-1.7002
8958.0,1.3344,-8.4109,-1.7292,-0.2205,1.0757,-1.7002
8963.0,1.3344,-8.4109,-1.7292,-0.2205,1.0757,-1.7002
8969.0,1.3344,-8.4109,-1.7292,-0.2205,1.0757,-1.7002
8974.0,1.3344,-8.4109,-1.7292,-0.2205,1.0757,-1.7002
8978.0,1.3344,-8.4109,-1.7292,0.0153,1.5296,-1.9268
8983.0,4.2224,-7.7912,-4.639,0.0153,1.5296,-1.9268
8988.0,4.2224,-7.7912,-4.639,0.0153,1.5296,-1.9268
8994.0,4.2224,-7.7912,-4.639,0.0153,1.5296,-1.9268
8999.0,4.2224,-7.7912,-4.639,0.0153,1.5296,-1.9268
9004.0,4.2224,-7.7912,-4.639,0.0153,1.5296,-1.9268
9008.0,4.2224,-7.7912,-4.639,0.1252,0.8748,-2.0325
9013.0,4.5528,-9.9315,-2.587,0.1252,0.8748,-2.0325
9018.0,4.5528,-9.9315,-2.587,0.1252,0.8748,-2.0325
9023.0,4.5528,-9.9315,-2.587,0.1252,0.8748,-2.0325
9028.0,4.5528,-9.9315,-2.587,0.1252,0.8748,-2.0325
9033.0,4.5528,-9.9315,-2.587,0.1252,0.8748,-2.0325
9038.0,5.094,-10.7133,-3.0751,0.1252,0.8748,-2.0325
9043.0,5.094,-10.7133,-3.0751,0.4203,-0.0165,-2.7619
9048.0,5.094,-10.7133,-3.0751,0.4203,-0.0165,-2.7619
9053.0,5.094,-10.7133,-3.0751,0.4203,-0.0165,-2.7619
9058.0,5.094,-10.7133,-3.0751,0.4203,-0.0165,-2.7619
9063.0,5.094,-10.7133,-3.0751,0.4203,-0.0165,-2.7619
9069.0,4.5768,-10.7657,-2.8571,0.4203,-0.0165,-2.7619
9073.0,4.5768,-10.7657,-2.8571,0.7679,-0.4484,-3.3367
9078.0,4.5768,-10.7657,-2.8571,0.7679,-0.4484,-3.3367
9084.0,4.5768,-10.7657,-2.8571,0.7679,-0.4484,-3.3367
9089.0,4.5768,-10.7657,-2.8571,0.7679,-0.4484,-3.3367
9093.0,4.5768,-10.7657,-2.8571,0.7679,-0.4484,-3.3367
9098.0,6.6553,-12.3912,-3.985,0.7679,-0.4484,-3.3367
9103.0,6.6553,-12.3912,-3.985,0.6616,0.212,-3.0453
9108.0,6.6553,-12.3912,-3.985,0.6616,0.212,-3.0453
9113.0,6.6553,-12.3912,-3.985,0.6616,0.212,-3.0453
9118.0,6.6553,-12.3912,-3.985,0.6616,0.212,-3.0453
9123.0,7.8334,-14.8699,-6.6057,0.6616,0.212,-3.0453
9128.0,7.8334,-14.8699,-6.6057,0.6616,0.212,-3.0453
9133.0,7.8334,-14.8699,-6.6057,0.6573,-0.5455,-2.0954
9138.0,7.8334,-14.8699,-6.6057,0.6573,-0.5455,-2.0954
9144.0,7.8334,-14.8699,-6.6057,0.6573,-0.5455,-2.0954
9155.0,7.8334,-14.8699,-6.6057,0.6573,-0.5455,-2.0954
9156.0,7.8334,-14.8699,-6.6057,0.6573,-0.5455,-2.0954
9160.0,7.8334,-14.8699,-6.6057,0.6573,-0.5455,-2.0954
9163.0,8.2597,-13.5591,-5.7337,0.565,-2.9004,-0.3435
9169.0,8.2597,-13.5591,-5.7337,0.565,-2.9004,-0.3435
9173.0,8.2597,-13.5591,-5.7337,0.565,-2.9004,-0.3435
9178.0,8.2597,-13.5591,-5.7337,0.565,-2.9004,-0.3435
9183.0,8.2597,-13.5591,-5.7337,0.565,-2.9004,-0.3435
9188.0,4.6869,-7.1334,-2.8429,0.565,-2.9004,-0.3435
9193.0,4.6869,-7.1334,-2.8429,0.3555,-2.5932,0.3535
9198.0,4.6869,-7.1334,-2.8429,0.3555,-2.5932,0.3535
9203.0,4.6869,-7.1334,-2.8429,0.3555,-2.5932,0.3535
9208.0,4.6869,-7.1334,-2.8429,0.3555,-2.5932,0.3535
9213.0,4.6869,-7.1334,-2.8429,0.3555,-2.5932,0.3535
9218.0,3.322,-5.894,-0.6961,0.3555,-2.5932,0.3535
9223.0,3.322,-5.894,-0.6961,0.0092,-0.7159,0.2289
9229.0,3.322,-5.894,-0.6961,0.0092,-0.7159,0.2289
9233.0,3.322,-5.894,-0.6961,0.0092,-0.7159,0.2289
9238.0,3.322,-5.894,-0.6961,0.0092,-0.7159,0.2289
9243.0,1.6122,-7.3908,-2.1321,0.0092,-0.7159,0.2289
9249.0,1.6122,-7.3908,-2.1321,0.0092,-0.7159,0.2289
9253.0,1.6122,-7.3908,-2.1321,0.3586,0.8638,0.0481
9258.0,1.6122,-7.3908,-2.1321,0.3586,0.8638,0.0481
9264.0,1.6122,-7.3908,-2.1321,0.3586,0.8638,0.0481
9268.0,1.6122,-7.3908,-2.1321,0.3586,0.8638,0.0481
9273.0,0.1803,-9.5931,-3.2078,0.3586,0.8638,0.0481
9278.0,0.1803,-9.5931,-3.2078,0.3586,0.8638,0.0481
9283.0,0.1803,-9.5931,-3.2078,0.3586,0.8638,0.0481
9288.0,0.1803,-9.5931,-3.2078,0.8051,2.1112,0.3902
9293.0,0.1803,-9.5931,-3.2078,0.8051,2.1112,0.3902
9298.0,1.2435,-6.4375,-3.677,0.8051,2.1112,0.3902
9303.0,1.2435,-6.4375,-3.677,0.8051,2.1112,0.3902
9308.0,1.2435,-6.4375,-3.677,0.8051,2.1112,0.3902
9313.0,1.2435,-6.4375,-3.677,0.8051,2.1112,0.3902
9318.0,1.2435,-6.4375,-3.677,0.5675,1.9389,1.67
9324.0,1.2435,-6.4375,-3.677,0.5675,1.9389,1.67
9328.0,3.5566,-3.5869,-3.1131,0.5675,1.9389,1.67
9333.0,3.5566,-3.5869,-3.1131,0.5675,1.9389,1.67
9339.0,3.5566,-3.5869,-3.1131,0.5675,1.9389,1.67
9343.0,3.5566,-3.5869,-3.1131,0.5675,1.9389,1.67
9348.0,3.5566,-3.5869,-3.1131,0.3964,1.3018,2.1177
9354.0,3.9685,-2.7623,-2.1178,0.3964,1.3018,2.1177
9359.0,3.9685,-2.7623,-2.1178,0.3964,1.3018,2.1177
9363.0,3.9685,-2.7623,-2.1178,0.3964,1.3018,2.1177
9368.0,3.9685,-2.7623,-2.1178,0.3964,1.3018,2.1177
9373.0,3.9685,-2.7623,-2.1178,0.3964,1.3018,2.1177
9378.0,3.9685,-2.7623,-2.1178,0.3964,1.3018,2.1177
9383.0,4.5097,-4.5355,-0.7719,0.0898,1.5253,1.9632
9388.0,4.5097,-4.5355,-0.7719,0.0898,1.5253,1.9632
9393.0,4.5097,-4.5355,-0.7719,0.0898,1.5253,1.9632
9399.0,4.5097,-4.5355,-0.7719,0.0898,1.5253,1.9632
9404.0,4.5097,-4.5355,-0.7719,0.0898,1.5253,1.9632
9409.0,4.8833,-8.082,-0.8715,0.0898,1.5253,1.9632
9413.0,4.8833,-8.082,-0.8715,-0.1185,2.0678,1.4849
9418.0,4.8833,-8.082,-0.8715,-0.1185,2.0678,1.4849
9423.0,4.8833,-8.082,-0.8715,-0.1185,2.0678,1.4849
9428.0,4.8833,-8.082,-0.8715,-0.1185,2.0678,1.4849
9433.0,4.8833,-8.082,-0.8715,-0.1185,2.0678,1.4849
9439.0,5.0461,-9.8791,-1.0042,-0.1185,2.0678,1.4849
9444.0,5.0461,-9.8791,-1.0042,-0.1014,2.9743,0.7683
9448.0,5.0461,-9.8791,-1.0042,-0.1014,2.9743,0.7683
9454.0,5.0461,-9.8791,-1.0042,-0.1014,2.9743,0.7683
9458.0,5.0461,-9.8791,-1.0042,-0.1014,2.9743,0.7683
9463.0,4.2655,-8.2917,-3.3026,-0.1014,2.9743,0.7683
9469.0,4.2655,-8.2917,-3.3026,-0.1014,2.9743,0.7683
9474.0,4.2655,-8.2917,-3.3026,-0.0128,3.1283,-0.1449
9478.0,4.2655,-8.2917,-3.3026,-0.0128,3.1283,-0.1449
9483.0,4.2655,-8.2917,-3.3026,-0.0128,3.1283,-0.1449
9488.0,4.2655,-8.2917,-3.3026,-0.0128,3.1283,-0.1449
9493.0,4.39,-6.7521,-6.4209,-0.0128,3.1283,-0.1449
9498.0,4.39,-6.7521,-6.4209,-0.0128,3.1283,-0.1449
9504.0,4.39,-6.7521,-6.4209,-0.0403,1.5491,0.2692
9508.0,4.39,-6.7521,-6.4209,-0.0403,1.5491,0.2692
9513.0,4.39,-6.7521,-6.4209,-0.0403,1.5491,0.2692
9518.0,6.1572,-7.2144,-5.421,-0.0403,1.5491,0.2692
9523.0,6.1572,-7.2144,-5.421,-0.0403,1.5491,0.2692
9528.0,6.1572,-7.2144,-5.421,-0.0403,1.5491,0.2692
9534.0,6.1572,-7.2144,-5.421,-0.0403,1.5491,0.2692
9538.0,6.1572,-7.2144,-5.421,-0.1313,-0.8797,0.8062
9544.0,7.9148,-5.1266,-4.8191,-0.1313,-0.8797,0.8062
9548.0,7.9148,-5.1266,-4.8191,-0.1313,-0.8797,0.8062
9553.0,7.9148,-5.1266,-4.8191,-0.1313,-0.8797,0.8062
9559.0,7.9148,-5.1266,-4.8191,-0.1313,-0.8797,0.8062
9563.0,7.9148,-5.1266,-4.8191,-0.1313,-0.8797,0.8062
9569.0,7.9148,-5.1266,-4.8191,-0.5162,-3.0024,0.4018
9574.0,5.0796,-5.2124,-5.5726,-0.5162,-3.0024,0.4018
9578.0,5.0796,-5.2124,-5.5726,-0.5162,-3.0024,0.4018
9583.0,5.0796,-5.2124,-5.5726,-0.5162,-3.0024,0.4018
9588.0,5.0796,-5.2124,-5.5726,-0.5162,-3.0024,0.4018
9593.0,5.0796,-5.2124,-5.5726,-0.5162,-3.0024,0.4018
9598.0,5.0796,-5.2124,-5.5726,-0.5162,-3.0024,0.4018
9603.0,1.6362,-5.3411,-3.7007,0.1881,-2.438,-0.2915
9608.0,1.6362,-5.3411,-3.7007,0.1881,-2.438,-0.2915
9614.0,1.6362,-5.3411,-3.7007,0.1881,-2.438,-0.2915
9618.0,1.6362,-5.3411,-3.7007,0.1881,-2.438,-0.2915
9623.0,1.6362,-5.3411,-3.7007,0.1881,-2.438,-0.2915
9628.0,1.6362,-5.3411,-3.7007,0.1881,-2.438,-0.2915
9633.0,0.4915,-11.8716,-1.4639,0.1881,-2.438,-0.2915
9638.0,0.4915,-11.8716,-1.4639,0.0825,-3.664,2.1397
9643.0,0.4915,-11.8716,-1.4639,0.0825,-3.664,2.1397
9648.0,0.4915,-11.8716,-1.4639,0.0825,-3.664,2.1397
9653.0,0.4915,-11.8716,-1.4639,0.0825,-3.664,2.1397
9659.0,7.2108,-15.0415,0.6261,0.0825,-3.664,2.1397
9664.0,7.2108,-15.0415,0.6261,0.0825,-3.664,2.1397
9668.0,7.2108,-15.0415,0.6261,-0.5217,-2.9126,1.56
9673.0,7.2108,-15.0415,0.6261,-0.5217,-2.9126,1.56
9678.0,7.2108,-15.0415,0.6261,-0.5217,-2.9126,1.56
9683.0,7.2108,-15.0415,0.6261,-0.5217,-2.9126,1.56
9688.0,11.5547,-17.9207,0.6735,-0.5217,-2.9126,1.56
9693.0,11.5547,-17.9207,0.6735,-0.5217,-2.9126,1.56
9699.0,11.5547,-17.9207,0.6735,-0.5217,-2.9126,1.56
9704.0,11.5547,-17.9207,0.6735,-0.4985,1.5485,-0.2989
9708.0,11.5547,-17.9207,0.6735,-0.4985,1.5485,-0.2989
9714.0,7.9531,-7.6387,-0.4876,-0.4985,1.5485,-0.2989
9719.0,7.9531,-7.6387,-0.4876,-0.4985,1.5485,-0.2989
9723.0,7.9531,-7.6387,-0.4876,-0.4985,1.5485,-0.2989
9728.0,7.9531,-7.6387,-0.4876,-0.4985,1.5485,-0.2989
9733.0,7.9531,-7.6387,-0.4876,-0.6035,1.8638,-0.3135
9738.0,7.9531,-7.6387,-0.4876,-0.6035,1.8638,-0.3135
9743.0,0.3479,-4.7405,-2.2932,-0.6035,1.8638,-0.3135
9748.0,0.3479,-4.7405,-2.2932,-0.6035,1.8638,-0.3135
9754.0,0.3479,-4.7405,-2.2932,-0.6035,1.8638,-0.3135
9758.0,0.3479,-4.7405,-2.2932,-0.6035,1.8638,-0.3135
9764.0,0.3479,-4.7405,-2.2932,-0.2822,-0.8192,-0.4913
9769.0,1.3153,-10.2604,2.9245,-0.2822,-0.8192,-0.4913
9773.0,1.3153,-10.2604,2.9245,-0.2822,-0.8192,-0.4913
9778.0,1.3153,-10.2604,2.9245,-0.2822,-0.8192,-0.4913
9784.0,1.3153,-10.2604,2.9245,-0.2822,-0.8192,-0.4913
9789.0,1.3153,-10.2604,2.9245,-0.2822,-0.8192,-0.4913
9793.0,1.3153,-10.2604,2.9245,-0.2822,-0.8192,-0.4913
9807.0,1.3153,-10.2604,2.9245,-0.2822,-0.8192,-0.4913
9808.0,1.3153,-10.2604,2.9245,-0.2822,-0.8192,-0.4913
9808.0,1.3153,-10.2604,2.9245,-0.2822,-0.8192,-0.4913
9815.0,4.1936,-17.077,5.9054,-0.3708,0.2175,-0.1126
9818.0,4.1936,-17.077,5.9054,-0.3708,0.2175,-0.1126
9823.0,4.1936,-17.077,5.9054,-0.3708,0.2175,-0.1126
9828.0,4.1936,-17.077,5.9054,-0.3708,0.2175,-0.1126
9833.0,4.1936,-17.077,5.9054,-0.3708,0.2175,-0.1126
9839.0,0.9896,-11.9622,-9.9515,-0.3708,0.2175,-0.1126
9843.0,0.9896,-11.9622,-9.9515,0.9242,-3.697,0.7121
9848.0,0.9896,-11.9622,-9.9515,0.9242,-3.697,0.7121
9853.0,0.9896,-11.9622,-9.9515,0.9242,-3.697,0.7121
9858.0,0.9896,-11.9622,-9.9515,0.9242,-3.697,0.7121
9863.0,3.9398,-7.5958,2.6733,0.9242,-3.697,0.7121
9868.0,3.9398,-7.5958,2.6733,0.9242,-3.697,0.7121
9874.0,3.9398,-7.5958,2.6733,0.7935,-1.1344,0.3743
9879.0,3.9398,-7.5958,2.6733,0.7935,-1.1344,0.3743
9883.0,3.9398,-7.5958,2.6733,0.7935,-1.1344,0.3743
9888.0,2.958,-4.2733,2.0146,0.7935,-1.1344,0.3743
9894.0,2.958,-4.2733,2.0146,0.7935,-1.1344,0.3743
9898.0,2.958,-4.2733,2.0146,0.7935,-1.1344,0.3743
9903.0,2.958,-4.2733,2.0146,0.2174,-0.1228,-0.1174
9909.0,2.958,-4.2733,2.0146,0.2174,-0.1228,-0.1174
9913.0,2.958,-4.2733,2.0146,0.2174,-0.1228,-0.1174
9919.0,4.0643,-6.0513,1.9814,0.2174,-0.1228,-0.1174
9923.0,4.0643,-6.0513,1.9814,0.2174,-0.1228,-0.1174
9929.0,4.0643,-6.0513,1.9814,0.2174,-0.1228,-0.1174
9933.0,4.0643,-6.0513,1.9814,-0.0074,1.0873,-0.1926
9938.0,4.0643,-6.0513,1.9814,-0.0074,1.0873,-0.1926
9943.0,5.6495,-9.8743,2.28,-0.0074,1.0873,-0.1926
9948.0,5.6495,-9.8743,2.28,-0.0074,1.0873,-0.1926
9953.0,5.6495,-9.8743,2.28,-0.0074,1.0873,-0.1926
9958.0,5.6495,-9.8743,2.28,-0.0074,1.0873,-0.1926
9963.0,5.6495,-9.8743,2.28,-0.0074,1.0873,-0.1926
9969.0,5.458,-9.4024,1.427,-0.1931,2.7947,0.4953
9974.0,5.458,-9.4024,1.427,-0.1931,2.7947,0.4953
9978.0,5.458,-9.4024,1.427,-0.1931,2.7947,0.4953
9983.0,5.458,-9.4024,1.427,-0.1931,2.7947,0.4953
9988.0,5.458,-9.4024,1.427,-0.1931,2.7947,0.4953
9993.0,5.458,-9.4024,1.427,-0.1931,2.7947,0.4953
9998.0,4.979,-7.224,0.8867,-0.1931,2.7947,0.4953
10004.0,4.979,-7.224,0.8867,-0.4178,3.1881,1.2521
10008.0,4.979,-7.224,0.8867,-0.4178,3.1881,1.2521
10013.0,4.979,-7.224,0.8867,-0.4178,3.1881,1.2521
10018.0,4.979,-7.224,0.8867,-0.4178,3.1881,1.2521
10023.0,5.0222,-7.429,-1.9899,-0.4178,3.1881,1.2521
10028.0,5.0222,-7.429,-1.9899,-0.4178,3.1881,1.2521
10033.0,5.0222,-7.429,-1.9899,-0.4111,0.3983,0.9155
10038.0,5.0222,-7.429,-1.9899,-0.4111,0.3983,0.9155
10044.0,5.0222,-7.429,-1.9899,-0.4111,0.3983,0.9155
10048.0,4.299,-8.8065,-3.1225,-0.4111,0.3983,0.9155
10053.0,4.299,-8.8065,-3.1225,-0.4111,0.3983,0.9155
10058.0,4.299,-8.8065,-3.1225,-0.4111,0.3983,0.9155
10063.0,4.299,-8.8065,-3.1225,-0.2108,-0.975,0.5026
10068.0,4.299,-8.8065,-3.1225,-0.2108,-0.975,0.5026
10073.0,4.299,-8.8065,-3.1225,-0.2108,-0.975,0.5026
10078.0,2.7664,-6.242,0.2375,-0.2108,-0.975,0.5026
10083.0,2.7664,-6.242,0.2375,-0.2108,-0.975,0.5026
10088.0,2.7664,-6.242,0.2375,-0.2108,-0.975,0.5026
10094.0,2.7664,-6.242,0.2375,-0.2285,-1.0953,0.3505
10099.0,2.7664,-6.242,0.2375,-0.2285,-1.0953,0.3505
10103.0,0.7645,-7.8866,-7.5678,-0.2285,-1.0953,0.3505
10108.0,0.7645,-7.8866,-7.5678,-0.2285,-1.0953,0.3505
10113.0,0.7645,-7.8866,-7.5678,-0.2285,-1.0953,0.3505
10118.0,0.7645,-7.8866,-7.5678,-0.2285,-1.0953,0.3505
10124.0,0.7645,-7.8866,-7.5678,0.0641,-1.8033,-0.2384
10128.0,0.8364,-8.8781,-1.3501,0.0641,-1.8033,-0.2384
10133.0,0.8364,-8.8781,-1.3501,0.0641,-1.8033,-0.2384
10139.0,0.8364,-8.8781,-1.3501,0.0641,-1.8033,-0.2384
10143.0,0.8364,-8.8781,-1.3501,0.0641,-1.8033,-0.2384
10148.0,0.8364,-8.8781,-1.3501,0.0641,-1.8033,-0.2384
10154.0,0.2233,-6.957,-0.2317,0.2547,-1.4252,-0.8163
10158.0,0.2233,-6.957,-0.2317,0.2547,-1.4252,-0.8163
10163.0,0.2233,-6.957,-0.2317,0.2547,-1.4252,-0.8163
10169.0,0.2233,-6.957,-0.2317,0.2547,-1.4252,-0.8163
10174.0,0.2233,-6.957,-0.2317,0.2547,-1.4252,-0.8163
10178.0,0.2233,-6.957,-0.2317,0.2547,-1.4252,-0.8163
10183.0,-0.1646,-5.5651,-0.5729,0.179,-0.1808,-1.2488
10188.0,-0.1646,-5.5651,-0.5729,0.179,-0.1808,-1.2488
10193.0,-0.1646,-5.5651,-0.5729,0.179,-0.1808,-1.2488
10199.0,-0.1646,-5.5651,-0.5729,0.179,-0.1808,-1.2488
10203.0,-0.1646,-5.5651,-0.5729,0.179,-0.1808,-1.2488
10208.0,1.2722,-8.1821,1.3275,0.179,-0.1808,-1.2488
10213.0,1.2722,-8.1821,1.3275,0.179,-0.1808,-1.2488
10218.0,1.2722,-8.1821,1.3275,-0.0898,1.16,-1.903
10223.0,1.2722,-8.1821,1.3275,-0.0898,1.16,-1.903
10228.0,1.2722,-8.1821,1.3275,-0.0898,1.16,-1.903
10233.0,2.9819,-10.2795,0.5645,-0.0898,1.16,-1.903
10239.0,2.9819,-10.2795,0.5645,-0.0898,1.16,-1.903
10243.0,2.9819,-10.2795,0.5645,-0.0898,1.16,-1.903
10248.0,2.9819,-10.2795,0.5645,-0.1692,1.8638,-1.633
10253.0,2.9819,-10.2795,0.5645,-0.1692,1.8638,-1.633
10258.0,2.9819,-10.2795,0.5645,-0.1692,1.8638,-1.633
10263.0,5.0652,-9.1259,-5.5821,-0.1692,1.8638,-1.633
10269.0,5.0652,-9.1259,-5.5821,-0.1692,1.8638,-1.633
10273.0,5.0652,-9.1259,-5.5821,-0.1692,1.8638,-1.633
10279.0,5.0652,-9.1259,-5.5821,-0.1271,0.5712,-1.2451
10283.0,5.0652,-9.1259,-5.5821,-0.1271,0.5712,-1.2451
10289.0,5.6064,-7.5148,-2.6913,-0.1271,0.5712,-1.2451
10293.0,5.6064,-7.5148,-2.6913,-0.1271,0.5712,-1.2451
10298.0,5.6064,-7.5148,-2.6913,-0.1271,0.5712,-1.2451
10303.0,5.6064,-7.5148,-2.6913,-0.1271,0.5712,-1.2451
10308.0,5.6064,-7.5148,-2.6913,0.0073,-0.2663,-1.2231
10313.0,5.8219,-7.939,-4.9471,0.0073,-0.2663,-1.2231
10318.0,5.8219,-7.939,-4.9471,0.0073,-0.2663,-1.2231
10323.0,5.8219,-7.939,-4.9471,0.0073,-0.2663,-1.2231
10328.0,5.8219,-7.939,-4.9471,0.0073,-0.2663,-1.2231
10334.0,5.8219,-7.939,-4.9471,0.0073,-0.2663,-1.2231
10339.0,5.8219,-7.939,-4.9471,0.0751,-0.7789,-1.498
10343.0,4.7444,-10.6942,-3.2031,0.0751,-0.7789,-1.498
10348.0,4.7444,-10.6942,-3.2031,0.0751,-0.7789,-1.498
10353.0,4.7444,-10.6942,-3.2031,0.0751,-0.7789,-1.498
10360.0,4.7444,-10.6942,-3.2031,0.0751,-0.7789,-1.498
10363.0,4.7444,-10.6942,-3.2031,0.0751,-0.7789,-1.498
10369.0,6.2673,-16.1713,-6.3451,0.6341,-0.5089,-3.184
10373.0,6.2673,-16.1713,-6.3451,0.6341,-0.5089,-3.184
10378.0,6.2673,-16.1713,-6.3451,0.6341,-0.5089,-3.184
10383.0,6.2673,-16.1713,-6.3451,0.6341,-0.5089,-3.184
10388.0,6.2673,-16.1713,-6.3451,0.6341,-0.5089,-3.184
10393.0,5.4245,-11.3949,-3.677,0.6341,-0.5089,-3.184
10398.0,5.4245,-11.3949,-3.677,0.6341,-0.5089,-3.184
10403.0,5.4245,-11.3949,-3.677,0.6383,0.6115,-3.7766
10408.0,5.4245,-11.3949,-3.677,0.6383,0.6115,-3.7766
10413.0,5.4245,-11.3949,-3.677,0.6383,0.6115,-3.7766
10418.0,5.4245,-11.3949,-3.677,0.6383,0.6115,-3.7766
10423.0,6.2482,-8.4872,-2.4259,0.6383,0.6115,-3.7766
10428.0,6.2482,-8.4872,-2.4259,0.6383,0.6115,-3.7766
10433.0,6.2482,-8.4872,-2.4259,0.0342,0.025,-2.8004
10438.0,6.2482,-8.4872,-2.4259,0.0342,0.025,-2.8004
10443.0,6.2482,-8.4872,-2.4259,0.0342,0.025,-2.8004
10448.0,7.9005,-9.6074,-4.1414,0.0342,0.025,-2.8004
10454.0,7.9005,-9.6074,-4.1414,0.0342,0.025,-2.8004
10459.0,7.9005,-9.6074,-4.1414,0.0342,0.025,-2.8004
10463.0,7.9005,-9.6074,-4.1414,-0.5076,-2.708,-0.4498
10469.0,7.9005,-9.6074,-4.1414,-0.5076,-2.708,-0.4498
10474.0,5.9608,-11.8573,-5.0798,-0.5076,-2.708,-0.4498
10478.0,5.9608,-11.8573,-5.0798,-0.5076,-2.708,-0.4498
10483.0,5.9608,-11.8573,-5.0798,-0.5076,-2.708,-0.4498
10489.0,5.9608,-11.8573,-5.0798,-0.5076,-2.708,-0.4498
10493.0,5.9608,-11.8573,-5.0798,0.3237,-2.6231,0.1605
10498.0,5.1706,-9.2451,-3.6912,0.3237,-2.6231,0.1605
10503.0,5.1706,-9.2451,-3.6912,0.3237,-2.6231,0.1605
10508.0,5.1706,-9.2451,-3.6912,0.3237,-2.6231,0.1605
10513.0,5.1706,-9.2451,-3.6912,0.3237,-2.6231,0.1605
10518.0,5.1706,-9.2451,-3.6912,0.3237,-2.6231,0.1605
10524.0,5.1706,-9.2451,-3.6912,0.5486,-0.8143,0.0401
10528.0,4.5432,-6.5423,-2.8808,0.5486,-0.8143,0.0401
10533.0,4.5432,-6.5423,-2.8808,0.5486,-0.8143,0.0401
10540.0,4.5432,-6.5423,-2.8808,0.5486,-0.8143,0.0401
10544.0,4.5432,-6.5423,-2.8808,0.5486,-0.8143,0.0401
10549.0,4.5432,-6.5423,-2.8808,0.5486,-0.8143,0.0401
10553.0,3.2885,-5.0598,-3.5206,0.5486,-0.8143,0.0401
10558.0,3.2885,-5.0598,-3.5206,0.595,0.372,0.0652
10563.0,3.2885,-5.0598,-3.5206,0.595,0.372,0.0652
10569.0,3.2885,-5.0598,-3.5206,0.595,0.372,0.0652
10574.0,3.2885,-5.0598,-3.5206,0.595,0.372,0.0652
10578.0,3.2885,-5.0598,-3.5206,0.595,0.372,0.0652
10583.0,0.8028,-4.7643,-2.6297,0.595,0.372,0.0652
10589.0,0.8028,-4.7643,-2.6297,-0.1362,0.248,0.8929
10593.0,0.8028,-4.7643,-2.6297,-0.1362,0.248,0.8929
10599.0,0.8028,-4.7643,-2.6297,-0.1362,0.248,0.8929
10603.0,0.8028,-4.7643,-2.6297,-0.1362,0.248,0.8929
10608.0,0.8028,-4.7643,-2.6297,-0.1362,0.248,0.8929
10613.0,0.276,-5.2362,-1.0847,-0.1362,0.248,0.8929
10618.0,0.276,-5.2362,-1.0847,-0.449,0.7489,1.9009
10623.0,0.276,-5.2362,-1.0847,-0.449,0.7489,1.9009
10628.0,0.276,-5.2362,-1.0847,-0.449,0.7489,1.9009
10633.0,0.276,-5.2362,-1.0847,-0.449,0.7489,1.9009
10639.0,2.8191,-6.1705,-2.0136,-0.449,0.7489,1.9009
10643.0,2.8191,-6.1705,-2.0136,-0.449,0.7489,1.9009
10648.0,2.8191,-6.1705,-2.0136,-0.449,0.7489,1.9009
10654.0,2.8191,-6.1705,-2.0136,-0.1558,1.4203,2.2955
10659.0,2.8191,-6.1705,-2.0136,-0.1558,1.4203,2.2955
10664.0,4.9695,-5.8178,-3.1747,-0.1558,1.4203,2.2955
10668.0,4.9695,-5.8178,-3.1747,-0.1558,1.4203,2.2955
10673.0,4.9695,-5.8178,-3.1747,-0.1558,1.4203,2.2955
10678.0,4.9695,-5.8178,-3.1747,-0.1558,1.4203,2.2955
10683.0,4.9695,-5.8178,-3.1747,-0.0293,1.9737,2.045
10688.0,4.9695,-5.8178,-3.1747,-0.0293,1.9737,2.045
10693.0,6.0087,-5.5079,-4.7527,-0.0293,1.9737,2.045
10699.0,6.0087,-5.5079,-4.7527,-0.0293,1.9737,2.045
10704.0,6.0087,-5.5079,-4.7527,-0.0293,1.9737,2.045
10709.0,6.0087,-5.5079,-4.7527,-0.0293,1.9737,2.045
10713.0,6.0087,-5.5079,-4.7527,-0.5406,2.0721,1.3566
10718.0,5.3287,-8.5301,-4.0893,-0.5406,2.0721,1.3566
10723.0,5.3287,-8.5301,-4.0893,-0.5406,2.0721,1.3566
10728.0,5.3287,-8.5301,-4.0893,-0.5406,2.0721,1.3566
10733.0,5.3287,-8.5301,-4.0893,-0.5406,2.0721,1.3566
10738.0,5.3287,-8.5301,-4.0893,-0.5406,2.0721,1.3566
10743.0,5.3287,-8.5301,-4.0893,-0.1607,1.4429,1.1568
10748.0,3.0394,-9.0544,-2.5965,-0.1607,1.4429,1.1568
10753.0,3.0394,-9.0544,-2.5965,-0.1607,1.4429,1.1568
10758.0,3.0394,-9.0544,-2.5965,-0.1607,1.4429,1.1568
10763.0,3.0394,-9.0544,-2.5965,-0.1607,1.4429,1.1568
10768.0,3.0394,-9.0544,-2.5965,-0.1607,1.4429,1.1568
10773.0,2.1055,-6.4088,-3.8997,-0.1607,1.4429,1.1568
10778.0,2.1055,-6.4088,-3.8997,-0.0287,0.8601,1.1092
10784.0,2.1055,-6.4088,-3.8997,-0.0287,0.8601,1.1092
10788.0,2.1055,-6.4088,-3.8997,-0.0287,0.8601,1.1092
10793.0,2.1055,-6.4088,-3.8997,-0.0287,0.8601,1.1092
10798.0,1.8996,-7.224,-6.1887,-0.0287,0.8601,1.1092
10803.0,1.8996,-7.224,-6.1887,-0.0287,0.8601,1.1092
10808.0,1.8996,-7.224,-6.1887,-0.0092,0.4905,0.7029
10813.0,1.8996,-7.224,-6.1887,-0.0092,0.4905,0.7029
10818.0,1.8996,-7.224,-6.1887,-0.0092,0.4905,0.7029
10824.0,3.8727,-11.4045,-5.4589,-0.0092,0.4905,0.7029
10828.0,3.8727,-11.4045,-5.4589,-0.0092,0.4905,0.7029
10834.0,3.8727,-11.4045,-5.4589,-0.0092,0.4905,0.7029
10838.0,3.8727,-11.4045,-5.4589,0.5333,0.4636,0.2601
10843.0,3.8727,-11.4045,-5.4589,0.5333,0.4636,0.2601
10848.0,3.8727,-11.4045,-5.4589,0.5333,0.4636,0.2601
10853.0,4.1313,-10.0412,-3.9613,0.5333,0.4636,0.2601
10860.0,4.1313,-10.0412,-3.9613,0.5333,0.4636,0.2601
10863.0,4.1313,-10.0412,-3.9613,0.5333,0.4636,0.2601
10868.0,4.1313,-10.0412,-3.9613,0.6988,-0.6879,0.02
10873.0,4.1313,-10.0412,-3.9613,0.6988,-0.6879,0.02
10878.0,5.5681,-7.305,-6.4398,0.6988,-0.6879,0.02
10883.0,5.5681,-7.305,-6.4398,0.6988,-0.6879,0.02
10888.0,5.5681,-7.305,-6.4398,0.6988,-0.6879,0.02
10893.0,5.5681,-7.305,-6.4398,0.6988,-0.6879,0.02
10898.0,5.5681,-7.305,-6.4398,0.6878,-0.1295,-1.6043
10904.0,2.4312,-6.323,-7.1413,0.6878,-0.1295,-1.6043
10908.0,2.4312,-6.323,-7.1413,0.6878,-0.1295,-1.6043
10913.0,2.4312,-6.323,-7.1413,0.6878,-0.1295,-1.6043
10918.0,2.4312,-6.323,-7.1413,0.6878,-0.1295,-1.6043
10923.0,2.4312,-6.323,-7.1413,0.6878,-0.1295,-1.6043
10928.0,2.4312,-6.323,-7.1413,0.6878,-0.1295,-1.6043
10933.0,0.3096,-1.07,-4.3784,1.157,-1.405,0.4983
10938.0,0.3096,-1.07,-4.3784,1.157,-1.405,0.4983
10943.0,0.3096,-1.07,-4.3784,1.157,-1.405,0.4983
10948.0,0.3096,-1.07,-4.3784,1.157,-1.405,0.4983
10953.0,0.3096,-1.07,-4.3784,1.157,-1.405,0.4983
10958.0,4.2607,-4.8406,2.2895,1.157,-1.405,0.4983
10963.0,4.2607,-4.8406,2.2895,-0.6353,-3.8161,3.6815
10968.0,4.2607,-4.8406,2.2895,-0.6353,-3.8161,3.6815
10973.0,4.2607,-4.8406,2.2895,-0.6353,-3.8161,3.6815
10978.0,4.2607,-4.8406,2.2895,-0.6353,-3.8161,3.6815
10984.0,4.2607,-4.8406,2.2895,-0.6353,-3.8161,3.6815
10988.0,11.9809,-12.7725,-7.2644,-0.6353,-3.8161,3.6815
10993.0,11.9809,-12.7725,-7.2644,-1.1906,-2.4594,0.5857
10998.0,11.9809,-12.7725,-7.2644,-1.1906,-2.4594,0.5857
11003.0,11.9809,-12.7725,-7.2644,-1.1906,-2.4594,0.5857
11008.0,11.9809,-12.7725,-7.2644,-1.1906,-2.4594,0.5857
11013.0,10.3047,-14.0548,7.2371,-1.1906,-2.4594,0.5857
11018.0,10.3047,-14.0548,7.2371,-1.1906,-2.4594,0.5857
11024.0,10.3047,-14.0548,7.2371,-0.372,3.8314,-0.9898
11028.0,10.3047,-14.0548,7.2371,-0.372,3.8314,-0.9898
11033.0,10.3047,-14.0548,7.2371,-0.372,3.8314,-0.9898
11038.0,10.3047,-14.0548,7.2371,-0.372,3.8314,-0.9898
11043.0,5.5107,-6.7711,0.3796,-0.372,3.8314,-0.9898
11048.0,5.5107,-6.7711,0.3796,-0.372,3.8314,-0.9898
11053.0,5.5107,-6.7711,0.3796,-0.372,3.8314,-0.9898
11058.0,5.5107,-6.7711,0.3796,-1.055,1.5516,0.7439
11064.0,5.5107,-6.7711,0.3796,-1.055,1.5516,0.7439
11068.0,-0.0161,-8.3775,-1.6866,-1.055,1.5516,0.7439
11073.0,-0.0161,-8.3775,-1.6866,-1.055,1.5516,0.7439
11079.0,-0.0161,-8.3775,-1.6866,-1.055,1.5516,0.7439
11083.0,-0.0161,-8.3775,-1.6866,-1.055,1.5516,0.7439
11088.0,-0.0161,-8.3775,-1.6866,-0.3665,-1.8595,0.2497
11093.0,-0.0161,-8.3775,-1.6866,-0.3665,-1.8595,0.2497
11098.0,5.434,-15.1512,3.2563,-0.3665,-1.8595,0.2497
11103.0,5.434,-15.1512,3.2563,-0.3665,-1.8595,0.2497
11109.0,5.434,-15.1512,3.2563,-0.3665,-1.8595,0.2497
11113.0,5.434,-15.1512,3.2563,-0.3665,-1.8595,0.2497
11118.0,5.434,-15.1512,3.2563,-0.6139,-6.0E-4,2.7726
