time in milliseconds,acceleration_x,acceleration_y,acceleration_z,Roll,Pitch,Yaw
6.0,-4.1923,2.4288,9.8814,-0.2037,0.3236,-0.7056
11.0,-4.1923,2.4288,9.8814,-0.2037,0.3236,-0.7056
16.0,-4.1923,2.4288,9.8814,-0.2037,0.3236,-0.7056
21.0,-4.1923,2.4288,9.8814,-0.2037,0.3236,-0.7056
26.0,-4.1923,2.4288,9.8814,-0.2037,0.3236,-0.7056
31.0,-4.7096,2.6052,6.7632,-0.2037,0.3236,-0.7056
36.0,-4.7096,2.6052,6.7632,-1.2214,-0.4998,-1.7655
41.0,-4.7096,2.6052,6.7632,-1.2214,-0.4998,-1.7655
46.0,-4.7096,2.6052,6.7632,-1.2214,-0.4998,-1.7655
51.0,-4.7096,2.6052,6.7632,-1.2214,-0.4998,-1.7655
56.0,-4.7096,2.6052,6.7632,-1.2214,-0.4998,-1.7655
61.0,-4.7096,2.6052,6.7632,-1.2214,-0.4998,-1.7655
66.0,-0.9979,4.0066,7.9432,-2.0357,-1.0386,-2.1106
72.0,-0.9979,4.0066,7.9432,-2.0357,-1.0386,-2.1106
76.0,-0.9979,4.0066,7.9432,-2.0357,-1.0386,-2.1106
81.0,-0.9979,4.0066,7.9432,-2.0357,-1.0386,-2.1106
86.0,-0.9979,4.0066,7.9432,-2.0357,-1.0386,-2.1106
91.0,-0.9979,4.0066,7.9432,-2.0357,-1.0386,-2.1106
96.0,-0.8207,0.6698,11.3269,-0.2562,0.2601,-1.9714
101.0,-0.8207,0.6698,11.3269,-0.2562,0.2601,-1.9714
106.0,-0.8207,0.6698,11.3269,-0.2562,0.2601,-1.9714
111.0,-0.8207,0.6698,11.3269,-0.2562,0.2601,-1.9714
116.0,-0.8207,0.6698,11.3269,-0.2562,0.2601,-1.9714
121.0,-1.6636,0.6365,8.7109,-0.2562,0.2601,-1.9714
126.0,-1.6636,0.6365,8.7109,-0.2562,0.2601,-1.9714
131.0,-1.6636,0.6365,8.7109,0.4951,0.4464,-0.6507
136.0,-1.6636,0.6365,8.7109,0.4951,0.4464,-0.6507
141.0,-1.6636,0.6365,8.7109,0.4951,0.4464,-0.6507
146.0,-2.7651,1.28,8.872,0.4951,0.4464,-0.6507
151.0,-2.7651,1.28,8.872,0.4951,0.4464,-0.6507
156.0,-2.7651,1.28,8.872,0.4951,0.4464,-0.6507
161.0,-2.7651,1.28,8.872,0.9453,-0.0477,-0.7728
166.0,-2.7651,1.28,8.872,0.9453,-0.0477,-0.7728
171.0,-2.7651,1.28,8.872,0.9453,-0.0477,-0.7728
176.0,-3.8427,1.914,8.6872,0.9453,-0.0477,-0.7728
181.0,-3.8427,1.914,8.6872,0.9453,-0.0477,-0.7728
186.0,-3.8427,1.914,8.6872,0.9453,-0.0477,-0.7728
191.0,-3.8427,1.914,8.6872,0.7309,-0.4143,-1.088
196.0,-3.8427,1.914,8.6872,0.7309,-0.4143,-1.088
201.0,-3.0812,0.136,10.2464,0.7309,-0.4143,-1.088
206.0,-3.0812,0.136,10.2464,0.7309,-0.4143,-1.088
211.0,-3.0812,0.136,10.2464,0.7309,-0.4143,-1.088
216.0,-3.0812,0.136,10.2464,0.7309,-0.4143,-1.088
221.0,-3.0812,0.136,10.2464,0.7908,0.0817,-0.7453
226.0,-3.0812,0.136,10.2464,0.7908,0.0817,-0.7453
231.0,-2.904,0.2885,10.0757,0.7908,0.0817,-0.7453
236.0,-2.904,0.2885,10.0757,0.7908,0.0817,-0.7453
241.0,-2.904,0.2885,10.0757,0.7908,0.0817,-0.7453
246.0,-2.904,0.2885,10.0757,0.7908,0.0817,-0.7453
251.0,-2.904,0.2885,10.0757,0.8122,0.5912,-0.2096
256.0,-2.8609,0.4792,10.0852,0.8122,0.5912,-0.2096
261.0,-2.8609,0.4792,10.0852,0.8122,0.5912,-0.2096
266.0,-2.8609,0.4792,10.0852,0.8122,0.5912,-0.2096
271.0,-2.8609,0.4792,10.0852,0.8122,0.5912,-0.2096
276.0,-2.8609,0.4792,10.0852,0.8122,0.5912,-0.2096
281.0,-2.8609,0.4792,10.0852,0.8122,0.5912,-0.2096
286.0,-4.3743,1.2752,9.4786,0.6875,0.5362,-0.2982
291.0,-4.3743,1.2752,9.4786,0.6875,0.5362,-0.2982
296.0,-4.3743,1.2752,9.4786,0.6875,0.5362,-0.2982
301.0,-4.3743,1.2752,9.4786,0.6875,0.5362,-0.2982
306.0,-4.3743,1.2752,9.4786,0.6875,0.5362,-0.2982
311.0,-4.1636,1.0035,10.5307,0.6875,0.5362,-0.2982
316.0,-4.1636,1.0035,10.5307,0.3809,0.2516,-0.3819
321.0,-4.1636,1.0035,10.5307,0.3809,0.2516,-0.3819
326.0,-4.1636,1.0035,10.5307,0.3809,0.2516,-0.3819
331.0,-4.1636,1.0035,10.5307,0.3809,0.2516,-0.3819
336.0,-4.6569,0.2408,10.9477,0.3809,0.2516,-0.3819
341.0,-4.6569,0.2408,10.9477,0.3809,0.2516,-0.3819
346.0,-4.6569,0.2408,10.9477,0.3204,-0.2463,0.4843
351.0,-4.6569,0.2408,10.9477,0.3204,-0.2463,0.4843
356.0,-4.6569,0.2408,10.9477,0.3204,-0.2463,0.4843
361.0,-4.6569,0.2408,10.9477,0.3204,-0.2463,0.4843
366.0,-3.9433,0.8415,9.6208,0.3204,-0.2463,0.4843
371.0,-3.9433,0.8415,9.6208,0.3204,-0.2463,0.4843
376.0,-3.9433,0.8415,9.6208,-0.2098,-0.4888,0.0763
381.0,-3.9433,0.8415,9.6208,-0.2098,-0.4888,0.0763
386.0,-3.9433,0.8415,9.6208,-0.2098,-0.4888,0.0763
391.0,-4.4366,0.7366,8.5972,-0.2098,-0.4888,0.0763
396.0,-4.4366,0.7366,8.5972,-0.2098,-0.4888,0.0763
401.0,-4.4366,0.7366,8.5972,-0.2098,-0.4888,0.0763
406.0,-4.4366,0.7366,8.5972,-0.2098,-0.4888,0.0763
411.0,-4.4366,0.7366,8.5972,0.3852,-0.4338,0.2058
416.0,-3.1147,-0.2835,9.5687,0.3852,-0.4338,0.2058
421.0,-3.1147,-0.2835,9.5687,0.3852,-0.4338,0.2058
426.0,-3.1147,-0.2835,9.5687,0.3852,-0.4338,0.2058
431.0,-3.1147,-0.2835,9.5687,0.3852,-0.4338,0.2058
436.0,-3.1147,-0.2835,9.5687,0.3852,-0.4338,0.2058
441.0,-3.1147,-0.2835,9.5687,0.5128,0.4116,0.5998
446.0,-2.7651,0.1836,7.9242,0.5128,0.4116,0.5998
451.0,-2.7651,0.1836,7.9242,0.5128,0.4116,0.5998
456.0,-2.7651,0.1836,7.9242,0.5128,0.4116,0.5998
461.0,-2.7651,0.1836,7.9242,0.5128,0.4116,0.5998
466.0,-2.7651,0.1836,7.9242,0.5128,0.4116,0.5998
471.0,-2.8418,0.3409,6.7537,0.5654,0.2668,-0.0044
476.0,-2.8418,0.3409,6.7537,0.5654,0.2668,-0.0044
481.0,-2.8418,0.3409,6.7537,0.5654,0.2668,-0.0044
486.0,-2.8418,0.3409,6.7537,0.5654,0.2668,-0.0044
491.0,-2.8418,0.3409,6.7537,0.5654,0.2668,-0.0044
496.0,-2.8418,0.3409,6.7537,0.5654,0.2668,-0.0044
501.0,-2.8418,-0.8746,6.384,0.4151,-0.0618,-0.8107
506.0,-2.8418,-0.8746,6.384,0.4151,-0.0618,-0.8107
511.0,-2.8418,-0.8746,6.384,0.4151,-0.0618,-0.8107
516.0,-2.8418,-0.8746,6.384,0.4151,-0.0618,-0.8107
521.0,-2.8418,-0.8746,6.384,0.4151,-0.0618,-0.8107
526.0,-2.9998,-1.828,6.4599,0.4151,-0.0618,-0.8107
531.0,-2.9998,-1.828,6.4599,0.4151,-0.0618,-0.8107
536.0,-2.9998,-1.828,6.4599,0.4817,-0.3049,-1.3324
541.0,-2.9998,-1.828,6.4599,0.4817,-0.3049,-1.3324
546.0,-2.9998,-1.828,6.4599,0.4817,-0.3049,-1.3324
551.0,-2.5113,-1.9042,5.5025,0.4817,-0.3049,-1.3324
556.0,-2.5113,-1.9042,5.5025,0.4817,-0.3049,-1.3324
562.0,-2.5113,-1.9042,5.5025,0.4817,-0.3049,-1.3324
566.0,-2.5113,-1.9042,5.5025,0.3192,0.1996,-1.5651
571.0,-2.5113,-1.9042,5.5025,0.3192,0.1996,-1.5651
576.0,-0.8542,-2.3046,4.5832,0.3192,0.1996,-1.5651
581.0,-0.8542,-2.3046,4.5832,0.3192,0.1996,-1.5651
586.0,-0.8542,-2.3046,4.5832,0.3192,0.1996,-1.5651
591.0,-0.8542,-2.3046,4.5832,0.3192,0.1996,-1.5651
596.0,-0.8542,-2.3046,4.5832,-0.2324,1.6957,-2.5462
602.0,-0.8542,-2.3046,4.5832,-0.2324,1.6957,-2.5462
606.0,-0.8494,-4.0683,3.9339,-0.2324,1.6957,-2.5462
611.0,-0.8494,-4.0683,3.9339,-0.2324,1.6957,-2.5462
616.0,-0.8494,-4.0683,3.9339,-0.2324,1.6957,-2.5462
621.0,-0.8494,-4.0683,3.9339,-0.2324,1.6957,-2.5462
626.0,-0.8494,-4.0683,3.9339,-0.2324,1.6957,-2.5462
631.0,-1.5439,-6.5471,5.6495,-0.3766,4.0103,-2.6244
636.0,-1.5439,-6.5471,5.6495,-0.3766,4.0103,-2.6244
641.0,-1.5439,-6.5471,5.6495,-0.3766,4.0103,-2.6244
646.0,-1.5439,-6.5471,5.6495,-0.3766,4.0103,-2.6244
651.0,-1.5439,-6.5471,5.6495,-0.3766,4.0103,-2.6244
656.0,-1.5439,-6.5471,5.6495,-0.3766,4.0103,-2.6244
661.0,-2.1138,-6.6043,4.8012,-0.1799,5.6553,-1.6061
666.0,-2.1138,-6.6043,4.8012,-0.1799,5.6553,-1.6061
671.0,-2.1138,-6.6043,4.8012,-0.1799,5.6553,-1.6061
676.0,-2.1138,-6.6043,4.8012,-0.1799,5.6553,-1.6061
681.0,-2.1138,-6.6043,4.8012,-0.1799,5.6553,-1.6061
686.0,-0.7249,-6.5757,3.2326,-0.1799,5.6553,-1.6061
691.0,-0.7249,-6.5757,3.2326,-1.2599,6.4494,-1.4924
696.0,-0.7249,-6.5757,3.2326,-1.2599,6.4494,-1.4924
701.0,-0.7249,-6.5757,3.2326,-1.2599,6.4494,-1.4924
706.0,-0.7249,-6.5757,3.2326,-1.2599,6.4494,-1.4924
711.0,1.3153,-7.5815,0.7446,-1.2599,6.4494,-1.4924
716.0,1.3153,-7.5815,0.7446,-1.2599,6.4494,-1.4924
721.0,1.3153,-7.5815,0.7446,-3.4395,6.5789,-2.1595
726.0,1.3153,-7.5815,0.7446,-3.4395,6.5789,-2.1595
731.0,1.3153,-7.5815,0.7446,-3.4395,6.5789,-2.1595
736.0,1.3153,-7.5815,0.7446,-3.4395,6.5789,-2.1595
741.0,1.2051,-10.146,1.1189,-3.4395,6.5789,-2.1595
746.0,1.2051,-10.146,1.1189,-3.4395,6.5789,-2.1595
751.0,1.2051,-10.146,1.1189,-4.9428,7.0994,-2.3232
756.0,1.2051,-10.146,1.1189,-4.9428,7.0994,-2.3232
761.0,1.2051,-10.146,1.1189,-4.9428,7.0994,-2.3232
766.0,-1.2278,-15.4181,4.2609,-4.9428,7.0994,-2.3232
771.0,-1.2278,-15.4181,4.2609,-4.9428,7.0994,-2.3232
776.0,-1.2278,-15.4181,4.2609,-4.9428,7.0994,-2.3232
781.0,-1.2278,-15.4181,4.2609,-4.9428,7.0994,-2.3232
786.0,-1.2278,-15.4181,4.2609,-6.2807,7.2833,-0.6794
791.0,-8.0045,-20.0991,7.0001,-6.2807,7.2833,-0.6794
796.0,-8.0045,-20.0991,7.0001,-6.2807,7.2833,-0.6794
801.0,-8.0045,-20.0991,7.0001,-6.2807,7.2833,-0.6794
806.0,-8.0045,-20.0991,7.0001,-6.2807,7.2833,-0.6794
811.0,-8.0045,-20.0991,7.0001,-6.2807,7.2833,-0.6794
816.0,-8.0045,-20.0991,7.0001,-7.2299,4.1068,2.0799
821.0,-20.0542,-20.1039,9.4455,-7.2299,4.1068,2.0799
826.0,-20.0542,-20.1039,9.4455,-7.2299,4.1068,2.0799
831.0,-20.0542,-20.1039,9.4455,-7.2299,4.1068,2.0799
836.0,-20.0542,-20.1039,9.4455,-7.2299,4.1068,2.0799
841.0,-20.0542,-20.1039,9.4455,-7.2299,4.1068,2.0799
846.0,-28.1528,-15.6279,6.3035,-2.2324,1.0292,3.4226
851.0,-28.1528,-15.6279,6.3035,-2.2324,1.0292,3.4226
856.0,-28.1528,-15.6279,6.3035,-2.2324,1.0292,3.4226
861.0,-28.1528,-15.6279,6.3035,-2.2324,1.0292,3.4226
866.0,-28.1528,-15.6279,6.3035,-2.2324,1.0292,3.4226
871.0,-28.1528,-15.6279,6.3035,-2.2324,1.0292,3.4226
876.0,-26.5532,-10.0888,-0.1322,-2.2324,1.0292,3.4226
881.0,-26.5532,-10.0888,-0.1322,1.9026,-3.0807,3.6163
886.0,-26.5532,-10.0888,-0.1322,1.9026,-3.0807,3.6163
892.0,-26.5532,-10.0888,-0.1322,1.9026,-3.0807,3.6163
896.0,-26.5532,-10.0888,-0.1322,1.9026,-3.0807,3.6163
901.0,-17.334,-8.4967,-0.971,1.9026,-3.0807,3.6163
906.0,-17.334,-8.4967,-0.971,1.9026,-3.0807,3.6163
911.0,-17.334,-8.4967,-0.971,2.7303,-5.3293,0.937
916.0,-17.334,-8.4967,-0.971,2.7303,-5.3293,0.937
921.0,-17.334,-8.4967,-0.971,2.7303,-5.3293,0.937
926.0,-16.7497,-2.8957,3.7681,2.7303,-5.3293,0.937
931.0,-16.7497,-2.8957,3.7681,2.7303,-5.3293,0.937
936.0,-16.7497,-2.8957,3.7681,2.7303,-5.3293,0.937
941.0,-16.7497,-2.8957,3.7681,1.2978,-0.016,-4.8272
946.0,-16.7497,-2.8957,3.7681,1.2978,-0.016,-4.8272
951.0,-16.7497,-2.8957,3.7681,1.2978,-0.016,-4.8272
956.0,-11.1989,-10.6656,0.4412,1.2978,-0.016,-4.8272
961.0,-11.1989,-10.6656,0.4412,1.2978,-0.016,-4.8272
966.0,-11.1989,-10.6656,0.4412,1.2978,-0.016,-4.8272
971.0,-11.1989,-10.6656,0.4412,5.0827,-0.6403,-2.1516
976.0,-11.1989,-10.6656,0.4412,5.0827,-0.6403,-2.1516
981.0,-4.7527,-6.1467,2.6733,5.0827,-0.6403,-2.1516
986.0,-4.7527,-6.1467,2.6733,5.0827,-0.6403,-2.1516
991.0,-4.7527,-6.1467,2.6733,5.0827,-0.6403,-2.1516
996.0,-4.7527,-6.1467,2.6733,5.0827,-0.6403,-2.1516
1001.0,-4.7527,-6.1467,2.6733,2.6063,1.1135,-1.6238
1006.0,0.4484,-4.6261,3.5548,2.6063,1.1135,-1.6238
1011.0,0.4484,-4.6261,3.5548,2.6063,1.1135,-1.6238
1016.0,0.4484,-4.6261,3.5548,2.6063,1.1135,-1.6238
1021.0,0.4484,-4.6261,3.5548,2.6063,1.1135,-1.6238
1026.0,0.4484,-4.6261,3.5548,2.6063,1.1135,-1.6238
1031.0,9.7108,-9.7265,5.1993,-0.1249,3.301,0.2876
1036.0,9.7108,-9.7265,5.1993,-0.1249,3.301,0.2876
1042.0,9.7108,-9.7265,5.1993,-0.1249,3.301,0.2876
1049.0,9.7108,-9.7265,5.1993,-0.1249,3.301,0.2876
1051.0,9.7108,-9.7265,5.1993,-0.1249,3.301,0.2876
1056.0,9.7108,-9.7265,5.1993,-0.1249,3.301,0.2876
1063.0,-9.8963,-0.7983,-6.6389,-0.1249,3.301,0.2876
1067.0,-9.8963,-0.7983,-6.6389,2.2562,2.3902,1.8551
1071.0,-9.8963,-0.7983,-6.6389,2.2562,2.3902,1.8551
1076.0,-9.8963,-0.7983,-6.6389,2.2562,2.3902,1.8551
1081.0,-9.8963,-0.7983,-6.6389,2.2562,2.3902,1.8551
1086.0,-6.5295,-4.1398,-0.1748,2.2562,2.3902,1.8551
1091.0,-6.5295,-4.1398,-0.1748,2.2562,2.3902,1.8551
1096.0,-6.5295,-4.1398,-0.1748,2.478,2.152,2.0311
1101.0,-6.5295,-4.1398,-0.1748,2.478,2.152,2.0311
1106.0,-6.5295,-4.1398,-0.1748,2.478,2.152,2.0311
1111.0,-6.5247,-3.1102,3.7301,2.478,2.152,2.0311
1116.0,-6.5247,-3.1102,3.7301,2.478,2.152,2.0311
1121.0,-6.5247,-3.1102,3.7301,2.478,2.152,2.0311
1126.0,-6.5247,-3.1102,3.7301,-0.1384,0.331,1.7073
1131.0,-6.5247,-3.1102,3.7301,-0.1384,0.331,1.7073
1136.0,-6.5247,-3.1102,3.7301,-0.1384,0.331,1.7073
1141.0,-3.9337,-5.4364,5.0808,-0.1384,0.331,1.7073
1146.0,-3.9337,-5.4364,5.0808,-0.1384,0.331,1.7073
1151.0,-3.9337,-5.4364,5.0808,-0.1384,0.331,1.7073
1156.0,-3.9337,-5.4364,5.0808,-1.3583,1.2448,1.1667
1161.0,-3.9337,-5.4364,5.0808,-1.3583,1.2448,1.1667
1166.0,-4.7718,-10.1556,4.768,-1.3583,1.2448,1.1667
1171.0,-4.7718,-10.1556,4.768,-1.3583,1.2448,1.1667
1176.0,-4.7718,-10.1556,4.768,-1.3583,1.2448,1.1667
1181.0,-4.7718,-10.1556,4.768,-1.3583,1.2448,1.1667
1186.0,-4.7718,-10.1556,4.768,-1.3351,2.8728,1.5698
1191.0,-8.9576,-8.8924,-3.3121,-1.3351,2.8728,1.5698
1196.0,-8.9576,-8.8924,-3.3121,-1.3351,2.8728,1.5698
1201.0,-8.9576,-8.8924,-3.3121,-1.3351,2.8728,1.5698
1206.0,-8.9576,-8.8924,-3.3121,-1.3351,2.8728,1.5698
1211.0,-8.9576,-8.8924,-3.3121,-1.3351,2.8728,1.5698
1216.0,-8.9576,-8.8924,-3.3121,-1.3461,1.0237,1.9571
1221.0,-12.8081,-12.7296,-4.5774,-1.3461,1.0237,1.9571
1226.0,-12.8081,-12.7296,-4.5774,-1.3461,1.0237,1.9571
1231.0,-12.8081,-12.7296,-4.5774,-1.3461,1.0237,1.9571
1236.0,-12.8081,-12.7296,-4.5774,-1.3461,1.0237,1.9571
1241.0,-12.8081,-12.7296,-4.5774,-1.3461,1.0237,1.9571
1246.0,-9.0869,-7.4528,0.5123,-1.3461,1.0237,1.9571
1251.0,-9.0869,-7.4528,0.5123,-1.2819,0.3835,0.7586
1256.0,-9.0869,-7.4528,0.5123,-1.2819,0.3835,0.7586
1261.0,-9.0869,-7.4528,0.5123,-1.2819,0.3835,0.7586
1266.0,-9.0869,-7.4528,0.5123,-1.2819,0.3835,0.7586
1271.0,-9.0869,-7.4528,0.5123,-1.2819,0.3835,0.7586
1277.0,-7.3915,-11.2662,-0.644,-1.2819,0.3835,0.7586
1282.0,-7.3915,-11.2662,-0.644,-1.3638,0.1862,0.2974
1286.0,-7.3915,-11.2662,-0.644,-1.3638,0.1862,0.2974
1291.0,-7.3915,-11.2662,-0.644,-1.3638,0.1862,0.2974
1296.0,-7.3915,-11.2662,-0.644,-1.3638,0.1862,0.2974
1301.0,-7.334,-8.2679,-0.9852,-1.3638,0.1862,0.2974
1306.0,-7.334,-8.2679,-0.9852,-1.3638,0.1862,0.2974
1311.0,-7.334,-8.2679,-0.9852,-1.3638,0.1862,0.2974
1316.0,-7.334,-8.2679,-0.9852,-0.42,0.1007,0.3298
1321.0,-7.334,-8.2679,-0.9852,-0.42,0.1007,0.3298
1326.0,-7.7411,-7.4909,-1.5728,-0.42,0.1007,0.3298
1331.0,-7.7411,-7.4909,-1.5728,-0.42,0.1007,0.3298
1336.0,-7.7411,-7.4909,-1.5728,-0.42,0.1007,0.3298
1341.0,-7.7411,-7.4909,-1.5728,-0.42,0.1007,0.3298
1346.0,-7.7411,-7.4909,-1.5728,-0.42,0.1007,0.3298
1353.0,-7.7411,-7.4909,-1.5728,0.1591,-1.0123,-0.3538
1356.0,-9.0917,-9.4358,-1.7956,0.1591,-1.0123,-0.3538
1361.0,-9.0917,-9.4358,-1.7956,0.1591,-1.0123,-0.3538
1366.0,-9.0917,-9.4358,-1.7956,0.1591,-1.0123,-0.3538
1372.0,-9.0917,-9.4358,-1.7956,0.1591,-1.0123,-0.3538
1376.0,-9.0917,-9.4358,-1.7956,0.1591,-1.0123,-0.3538
1381.0,-8.881,-9.1164,-0.7388,0.3503,-1.4631,-0.4515
1386.0,-8.881,-9.1164,-0.7388,0.3503,-1.4631,-0.4515
1391.0,-8.881,-9.1164,-0.7388,0.3503,-1.4631,-0.4515
1396.0,-8.881,-9.1164,-0.7388,0.3503,-1.4631,-0.4515
1401.0,-8.881,-9.1164,-0.7388,0.3503,-1.4631,-0.4515
1406.0,-8.881,-9.1164,-0.7388,0.3503,-1.4631,-0.4515
1411.0,-8.3925,-7.162,-1.2079,0.4517,-0.7002,-0.5896
1416.0,-8.3925,-7.162,-1.2079,0.4517,-0.7002,-0.5896
1421.0,-8.3925,-7.162,-1.2079,0.4517,-0.7002,-0.5896
1426.0,-8.3925,-7.162,-1.2079,0.4517,-0.7002,-0.5896
1431.0,-8.3925,-7.162,-1.2079,0.4517,-0.7002,-0.5896
1437.0,-10.6913,-5.8702,-3.3595,0.4517,-0.7002,-0.5896
1441.0,-10.6913,-5.8702,-3.3595,0.635,-1.1266,-0.8461
1446.0,-10.6913,-5.8702,-3.3595,0.635,-1.1266,-0.8461
1451.0,-10.6913,-5.8702,-3.3595,0.635,-1.1266,-0.8461
1456.0,-10.6913,-5.8702,-3.3595,0.635,-1.1266,-0.8461
1461.0,-6.9366,-5.2219,1.9198,0.635,-1.1266,-0.8461
1466.0,-6.9366,-5.2219,1.9198,0.635,-1.1266,-0.8461
1471.0,-6.9366,-5.2219,1.9198,-0.3497,-1.2121,-0.964
1476.0,-6.9366,-5.2219,1.9198,-0.3497,-1.2121,-0.964
1481.0,-6.9366,-5.2219,1.9198,-0.3497,-1.2121,-0.964
1486.0,-6.9366,-5.2219,1.9198,-0.3497,-1.2121,-0.964
1491.0,-4.3983,-4.9359,3.4411,-0.3497,-1.2121,-0.964
1496.0,-4.3983,-4.9359,3.4411,-0.3497,-1.2121,-0.964
1501.0,-4.3983,-4.9359,3.4411,-0.7938,-0.4271,-0.6464
1508.0,-4.3983,-4.9359,3.4411,-0.7938,-0.4271,-0.6464
1511.0,-4.3983,-4.9359,3.4411,-0.7938,-0.4271,-0.6464
1516.0,-3.0525,-3.7871,3.3463,-0.7938,-0.4271,-0.6464
1521.0,-3.0525,-3.7871,3.3463,-0.7938,-0.4271,-0.6464
1526.0,-3.0525,-3.7871,3.3463,-0.7938,-0.4271,-0.6464
1531.0,-3.0525,-3.7871,3.3463,-0.7938,-0.4271,-0.6464
1536.0,-3.0525,-3.7871,3.3463,-0.1084,-0.479,-0.5651
1541.0,-1.5439,-1.7469,2.915,-0.1084,-0.479,-0.5651
1546.0,-1.5439,-1.7469,2.915,-0.1084,-0.479,-0.5651
1551.0,-1.5439,-1.7469,2.915,-0.1084,-0.479,-0.5651
1556.0,-1.5439,-1.7469,2.915,-0.1084,-0.479,-0.5651
1561.0,-1.5439,-1.7469,2.915,-0.1084,-0.479,-0.5651
1566.0,-1.5439,-1.7469,2.915,0.7578,-0.3599,-0.8284
1571.0,-2.0324,-4.0255,4.133,0.7578,-0.3599,-0.8284
1576.0,-2.0324,-4.0255,4.133,0.7578,-0.3599,-0.8284
1582.0,-2.0324,-4.0255,4.133,0.7578,-0.3599,-0.8284
1586.0,-2.0324,-4.0255,4.133,0.7578,-0.3599,-0.8284
1591.0,-2.0324,-4.0255,4.133,0.7578,-0.3599,-0.8284
1596.0,-4.2642,-6.1038,2.7681,0.7578,-0.3599,-0.8284
1601.0,-4.2642,-6.1038,2.7681,1.2929,-1.0673,-0.1381
1606.0,-4.2642,-6.1038,2.7681,1.2929,-1.0673,-0.1381
1611.0,-4.2642,-6.1038,2.7681,1.2929,-1.0673,-0.1381
1616.0,-4.2642,-6.1038,2.7681,1.2929,-1.0673,-0.1381
1622.0,-4.2642,-6.1038,2.7681,1.2929,-1.0673,-0.1381
1626.0,-8.1769,-6.4565,6.2466,1.2929,-1.0673,-0.1381
1631.0,-8.1769,-6.4565,6.2466,1.1518,1.0823,0.2449
1636.0,-8.1769,-6.4565,6.2466,1.1518,1.0823,0.2449
1641.0,-8.1769,-6.4565,6.2466,1.1518,1.0823,0.2449
1646.0,-8.1769,-6.4565,6.2466,1.1518,1.0823,0.2449
1651.0,-7.7124,-8.5444,-4.0419,1.1518,1.0823,0.2449
1656.0,-7.7124,-8.5444,-4.0419,1.1518,1.0823,0.2449
1662.0,-7.7124,-8.5444,-4.0419,0.7877,1.532,-1.5438
1666.0,-7.7124,-8.5444,-4.0419,0.7877,1.532,-1.5438
1671.0,-7.7124,-8.5444,-4.0419,0.7877,1.532,-1.5438
1676.0,-7.7124,-8.5444,-4.0419,0.7877,1.532,-1.5438
1681.0,-14.3981,-10.2509,1.4222,0.7877,1.532,-1.5438
1686.0,-14.3981,-10.2509,1.4222,0.7877,1.532,-1.5438
1692.0,-14.3981,-10.2509,1.4222,2.0992,0.9388,-1.3287
1696.0,-14.3981,-10.2509,1.4222,2.0992,0.9388,-1.3287
1701.0,-14.3981,-10.2509,1.4222,2.0992,0.9388,-1.3287
1706.0,-13.7133,-9.2975,-2.1178,2.0992,0.9388,-1.3287
1711.0,-13.7133,-9.2975,-2.1178,2.0992,0.9388,-1.3287
1716.0,-13.7133,-9.2975,-2.1178,2.0992,0.9388,-1.3287
1721.0,-13.7133,-9.2975,-2.1178,1.5531,-0.1901,0.3084
1726.0,-13.7133,-9.2975,-2.1178,1.5531,-0.1901,0.3084
1731.0,-13.7133,-9.2975,-2.1178,1.5531,-0.1901,0.3084
1736.0,-9.9059,-7.6244,-0.7103,1.5531,-0.1901,0.3084
1742.0,-9.9059,-7.6244,-0.7103,1.5531,-0.1901,0.3084
1746.0,-9.9059,-7.6244,-0.7103,1.5531,-0.1901,0.3084
1751.0,-9.9059,-7.6244,-0.7103,1.5531,-0.1901,0.3084
1756.0,-9.9059,-7.6244,-0.7103,-0.4548,-1.1272,0.8918
1761.0,-6.9653,-9.2356,2.5075,-0.4548,-1.1272,0.8918
1766.0,-6.9653,-9.2356,2.5075,-0.4548,-1.1272,0.8918
1771.0,-6.9653,-9.2356,2.5075,-0.4548,-1.1272,0.8918
1776.0,-6.9653,-9.2356,2.5075,-0.4548,-1.1272,0.8918
1781.0,-6.9653,-9.2356,2.5075,-0.4548,-1.1272,0.8918
1786.0,-3.4883,-10.3462,0.6877,-1.1903,0.1581,0.1068
1792.0,-3.4883,-10.3462,0.6877,-1.1903,0.1581,0.1068
1797.0,-3.4883,-10.3462,0.6877,-1.1903,0.1581,0.1068
1801.0,-3.4883,-10.3462,0.6877,-1.1903,0.1581,0.1068
1806.0,-3.4883,-10.3462,0.6877,-1.1903,0.1581,0.1068
1811.0,-3.359,-8.0153,-0.4023,-0.9924,1.2338,0.1068
1816.0,-3.359,-8.0153,-0.4023,-0.9924,1.2338,-0.8675
1822.0,-3.359,-8.0153,-0.4023,-0.9924,1.2338,-0.8675
1826.0,-3.359,-8.0153,-0.4023,-0.9924,1.2338,-0.8675
1831.0,-3.359,-8.0153,-0.4023,-0.9924,1.2338,-0.8675
1836.0,-3.359,-8.0153,-0.4023,-0.9924,1.2338,-0.8675
1841.0,-3.8858,-3.8681,-1.6345,-0.9924,1.2338,-0.8675
1846.0,-3.8858,-3.8681,-1.6345,-0.7505,-0.2414,-0.6458
1851.0,-3.8858,-3.8681,-1.6345,-0.7505,-0.2414,-0.6458
1856.0,-3.8858,-3.8681,-1.6345,-0.7505,-0.2414,-0.6458
1861.0,-3.8858,-3.8681,-1.6345,-0.7505,-0.2414,-0.6458
1866.0,-5.2172,-5.5079,-0.9378,-0.7505,-0.2414,-0.6458
1872.0,-5.2172,-5.5079,-0.9378,-0.7505,-0.2414,-0.6458
1876.0,-5.2172,-5.5079,-0.9378,-0.2422,-0.2683,-0.735
1881.0,-5.2172,-5.5079,-0.9378,-0.2422,-0.2683,-0.735
1886.0,-5.2172,-5.5079,-0.9378,-0.2422,-0.2683,-0.735
1891.0,-7.0515,-7.858,0.0337,-0.2422,-0.2683,-0.735
1896.0,-7.0515,-7.858,0.0337,-0.2422,-0.2683,-0.735
1901.0,-7.0515,-7.858,0.0337,-0.2422,-0.2683,-0.735
1906.0,-7.0515,-7.858,0.0337,0.1139,0.8704,-0.9714
1913.0,-7.0515,-7.858,0.0337,0.1139,0.8704,-0.9714
1916.0,-7.0515,-7.858,0.0337,0.1139,0.8704,-0.9714
1921.0,-10.6482,-8.9639,-0.6677,0.1139,0.8704,-0.9714
1926.0,-10.6482,-8.9639,-0.6677,0.1139,0.8704,-0.9714
1931.0,-10.6482,-8.9639,-0.6677,0.1139,0.8704,-0.9714
1936.0,-10.6482,-8.9639,-0.6677,-1.5012,0.4501,-1.5389
1941.0,-10.6482,-8.9639,-0.6677,-1.5012,0.4501,-1.5389
1946.0,-10.7488,-7.9056,-1.7198,-1.5012,0.4501,-1.5389
1951.0,-10.7488,-7.9056,-1.7198,-1.5012,0.4501,-1.5389
1956.0,-10.7488,-7.9056,-1.7198,-1.5012,0.4501,-1.5389
1961.0,-10.7488,-7.9056,-1.7198,-1.5012,0.4501,-1.5389
1967.0,-10.7488,-7.9056,-1.7198,-3.7926,-0.6128,-1.7569
1971.0,-8.584,-7.0142,-0.1654,-3.7926,-0.6128,-1.7569
1977.0,-8.584,-7.0142,-0.1654,-3.7926,-0.6128,-1.7569
1981.0,-8.584,-7.0142,-0.1654,-3.7926,-0.6128,-1.7569
1986.0,-8.584,-7.0142,-0.1654,-3.7926,-0.6128,-1.7569
1991.0,-8.584,-7.0142,-0.1654,-3.7926,-0.6128,-1.7569
1996.0,-8.584,-7.0142,-0.1654,-3.7926,-0.6128,-1.7569
2001.0,-6.041,-6.0704,-1.4544,-3.1084,0.645,-0.9903
2006.0,-6.041,-6.0704,-1.4544,-3.1084,0.645,-0.9903
2011.0,-6.041,-6.0704,-1.4544,-3.1084,0.645,-0.9903
2016.0,-6.041,-6.0704,-1.4544,-3.1084,0.645,-0.9903
2021.0,-6.041,-6.0704,-1.4544,-3.1084,0.645,-0.9903
2026.0,-4.7718,-6.2325,-3.0656,-3.1084,0.645,-0.9903
2031.0,-4.7718,-6.2325,-3.0656,-1.3381,1.006,-0.1394
2036.0,-4.7718,-6.2325,-3.0656,-1.3381,1.006,-0.1394
2041.0,-4.7718,-6.2325,-3.0656,-1.3381,1.006,-0.1394
2046.0,-4.7718,-6.2325,-3.0656,-1.3381,1.006,-0.1394
2051.0,-4.7718,-6.2325,-3.0656,-1.3381,1.006,-0.1394
2056.0,-3.5889,-6.0513,-3.3121,-1.3381,1.006,-0.1394
2061.0,-3.5889,-6.0513,-3.3121,-1.3381,1.006,-0.1394
2066.0,-3.5889,-6.0513,-3.3121,0.7486,0.1251,-0.5425
2072.0,-3.5889,-6.0513,-3.3121,0.7486,0.1251,-0.5425
2076.0,-3.5889,-6.0513,-3.3121,0.7486,0.1251,-0.5425
2081.0,-2.4874,-5.2267,-1.4212,0.7486,0.1251,-0.5425
2086.0,-2.4874,-5.2267,-1.4212,0.7486,0.1251,-0.5425
2091.0,-2.4874,-5.2267,-1.4212,0.7486,0.1251,-0.5425
2096.0,-2.4874,-5.2267,-1.4212,2.0907,-0.3636,-0.8333
2101.0,-2.4874,-5.2267,-1.4212,2.0907,-0.3636,-0.8333
2106.0,-2.2623,-6.6806,0.1806,2.0907,-0.3636,-0.8333
2111.0,-2.2623,-6.6806,0.1806,2.0907,-0.3636,-0.8333
2116.0,-2.2623,-6.6806,0.1806,2.0907,-0.3636,-0.8333
2121.0,-2.2623,-6.6806,0.1806,2.0907,-0.3636,-0.8333
2126.0,-2.2623,-6.6806,0.1806,2.1249,-0.4387,0.1587
2132.0,-2.3485,-7.877,2.697,2.1249,-0.4387,0.1587
2136.0,-2.3485,-7.877,2.697,2.1249,-0.4387,0.1587
2141.0,-2.3485,-7.877,2.697,2.1249,-0.4387,0.1587
2147.0,-2.3485,-7.877,2.697,2.1249,-0.4387,0.1587
2152.0,-2.3485,-7.877,2.697,2.1249,-0.4387,0.1587
2156.0,-2.3485,-7.877,2.697,2.1249,-0.4387,0.1587
2161.0,-4.154,-8.1726,2.2563,0.1176,0.5894,1.4464
2166.0,-4.154,-8.1726,2.2563,0.1176,0.5894,1.4464
2171.0,-4.154,-8.1726,2.2563,0.1176,0.5894,1.4464
2176.0,-4.154,-8.1726,2.2563,0.1176,0.5894,1.4464
2181.0,-4.154,-8.1726,2.2563,0.1176,0.5894,1.4464
2187.0,-5.5429,-7.4909,1.9862,0.1176,0.5894,1.4464
2192.0,-5.5429,-7.4909,1.9862,0.1176,0.5894,1.4464
2196.0,-5.5429,-7.4909,1.9862,-2.1884,0.7464,2.086
2201.0,-5.5429,-7.4909,1.9862,-2.1884,0.7464,2.086
2207.0,-5.5429,-7.4909,1.9862,-2.1884,0.7464,2.086
2211.0,-5.744,-8.349,2.0525,-2.1884,0.7464,2.086
2216.0,-5.744,-8.349,2.0525,-2.1884,0.7464,2.086
2221.0,-5.744,-8.349,2.0525,-2.1884,0.7464,2.086
2226.0,-5.744,-8.349,2.0525,-2.5128,3.1734,2.1245
2232.0,-5.744,-8.349,2.0525,-2.5128,3.1734,2.1245
2236.0,-5.744,-8.349,2.0525,-2.5128,3.1734,2.1245
2241.0,-5.8159,-13.7402,-2.8192,-2.5128,3.1734,2.1245
2247.0,-5.8159,-13.7402,-2.8192,-2.5128,3.1734,2.1245
2251.0,-5.8159,-13.7402,-2.8192,-2.5128,3.1734,2.1245
2256.0,-5.8159,-13.7402,-2.8192,-1.2856,3.4678,2.4342
2261.0,-5.8159,-13.7402,-2.8192,-1.2856,3.4678,2.4342
2266.0,-5.7776,-12.5437,-8.6625,-1.2856,3.4678,2.4342
2271.0,-5.7776,-12.5437,-8.6625,-1.2856,3.4678,2.4342
2276.0,-5.7776,-12.5437,-8.6625,-1.2856,3.4678,2.4342
2281.0,-5.7776,-12.5437,-8.6625,-1.2856,3.4678,2.4342
2286.0,-5.7776,-12.5437,-8.6625,-2.4542,-0.5652,0.7592
2291.0,-5.7776,-12.5437,-8.6625,-2.4542,-0.5652,0.7592
2297.0,-5.9452,-9.9363,-1.625,-2.4542,-0.5652,0.7592
2301.0,-5.9452,-9.9363,-1.625,-2.4542,-0.5652,0.7592
2306.0,-5.9452,-9.9363,-1.625,-2.4542,-0.5652,0.7592
2312.0,-5.9452,-9.9363,-1.625,-2.4542,-0.5652,0.7592
2316.0,-5.9452,-9.9363,-1.625,-2.4542,-0.5652,0.7592
2321.0,-4.154,-7.2764,0.4649,-2.6851,0.8911,0.6132
2326.0,-4.154,-7.2764,0.4649,-2.6851,0.8911,0.6132
2331.0,-4.154,-7.2764,0.4649,-2.6851,0.8911,0.6132
2336.0,-4.154,-7.2764,0.4649,-2.6851,0.8911,0.6132
2341.0,-4.154,-7.2764,0.4649,-2.6851,0.8911,0.6132
2346.0,-4.154,-7.2764,0.4649,-2.6851,0.8911,0.6132
2352.0,-1.314,-5.6319,0.0147,-3.4566,2.0909,1.1251
2357.0,-1.314,-5.6319,0.0147,-3.4566,2.0909,1.1251
2361.0,-1.314,-5.6319,0.0147,-3.4566,2.0909,1.1251
2366.0,-1.314,-5.6319,0.0147,-3.4566,2.0909,1.1251
2371.0,-1.314,-5.6319,0.0147,-3.4566,2.0909,1.1251
2375.0,0.6735,-5.6462,-0.1938,-3.4566,2.0909,1.1251
2381.0,0.6735,-5.6462,-0.1938,-3.3888,2.5448,0.794
2387.0,0.6735,-5.6462,-0.1938,-3.3888,2.5448,0.794
2392.0,0.6735,-5.6462,-0.1938,-3.3888,2.5448,0.794
2396.0,0.6735,-5.6462,-0.1938,-3.3888,2.5448,0.794
2403.0,0.6735,-5.6462,-0.1938,-3.3888,2.5448,0.794
2407.0,1.9618,-6.957,1.5123,-3.3888,2.5448,0.794
2412.0,1.9618,-6.957,1.5123,-3.5476,2.3701,1.017
2417.0,1.9618,-6.957,1.5123,-3.5476,2.3701,1.017
2421.0,1.9618,-6.957,1.5123,-3.5476,2.3701,1.017
2426.0,1.9618,-6.957,1.5123,-3.5476,2.3701,1.017
2431.0,1.9618,-6.957,1.5123,-3.5476,2.3701,1.017
2437.0,2.3833,-8.2107,2.8676,-3.5476,2.3701,1.017
2442.0,2.3833,-8.2107,2.8676,-2.9923,2.2778,1.7604
2446.0,2.3833,-8.2107,2.8676,-2.9923,2.2778,1.7604
2451.0,2.3833,-8.2107,2.8676,-2.9923,2.2778,1.7604
2457.0,2.3833,-8.2107,2.8676,-2.9923,2.2778,1.7604
2461.0,1.3536,-6.4899,3.1567,-2.9923,2.2778,1.7604
2466.0,1.3536,-6.4899,3.1567,-2.9923,2.2778,1.7604
2471.0,1.3536,-6.4899,3.1567,-1.6179,2.6682,1.8637
2476.0,1.3536,-6.4899,3.1567,-1.6179,2.6682,1.8637
2482.0,1.3536,-6.4899,3.1567,-1.6179,2.6682,1.8637
2486.0,1.5404,-5.3887,3.1709,-1.6179,2.6682,1.8637
2491.0,1.5404,-5.3887,3.1709,-1.6179,2.6682,1.8637
2497.0,1.5404,-5.3887,3.1709,-1.6179,2.6682,1.8637
2503.0,1.5404,-5.3887,3.1709,-0.6191,1.0866,1.0262
2506.0,1.5404,-5.3887,3.1709,-0.6191,1.0866,1.0262
2512.0,1.5404,-5.3887,3.1709,-0.6191,1.0866,1.0262
2516.0,1.5404,-5.3887,3.1709,-0.6191,1.0866,1.0262
2521.0,1.8804,-11.4378,6.6826,-0.6191,1.0866,1.0262
2526.0,1.8804,-11.4378,6.6826,-0.6191,1.0866,1.0262
2531.0,1.8804,-11.4378,6.6826,-0.6191,1.0866,1.0262
2536.0,1.8804,-11.4378,6.6826,1.2074,0.926,1.4678
2541.0,1.8804,-11.4378,6.6826,1.2074,0.926,1.4678
2546.0,5.185,-21.7389,0.9294,1.2074,0.926,1.4678
2551.0,5.185,-21.7389,0.9294,1.2074,0.926,1.4678
2557.0,5.185,-21.7389,0.9294,1.2074,0.926,1.4678
2561.0,5.185,-21.7389,0.9294,1.2074,0.926,1.4678
2566.0,5.185,-21.7389,0.9294,0.9264,-2.5059,-0.6586
2571.0,6.2051,-17.8301,0.8346,0.9264,-2.5059,-0.6586
2577.0,6.2051,-17.8301,0.8346,0.9264,-2.5059,-0.6586
2582.0,6.2051,-17.8301,0.8346,0.9264,-2.5059,-0.6586
2586.0,6.2051,-17.8301,0.8346,0.9264,-2.5059,-0.6586
2591.0,6.2051,-17.8301,0.8346,0.9264,-2.5059,-0.6586
2596.0,6.2051,-17.8301,0.8346,-0.2361,1.0335,-3.6036
2601.0,1.6362,-8.7637,-1.2553,-0.2361,1.0335,-3.6036
2606.0,1.6362,-8.7637,-1.2553,-0.2361,1.0335,-3.6036
2611.0,1.6362,-8.7637,-1.2553,-0.2361,1.0335,-3.6036
2616.0,1.6362,-8.7637,-1.2553,-0.2361,1.0335,-3.6036
2621.0,1.6362,-8.7637,-1.2553,-0.2361,1.0335,-3.6036
2626.0,-0.1358,-6.5376,-3.1083,0.0418,0.0854,-2.5926
2631.0,-0.1358,-6.5376,-3.1083,0.0418,0.0854,-2.5926
2636.0,-0.1358,-6.5376,-3.1083,0.0418,0.0854,-2.5926
2641.0,-0.1358,-6.5376,-3.1083,0.0418,0.0854,-2.5926
2646.0,-0.1358,-6.5376,-3.1083,0.0418,0.0854,-2.5926
2651.0,0.3383,-9.8505,-1.8572,0.0418,0.0854,-2.5926
2656.0,0.3383,-9.8505,-1.8572,0.0339,-0.9189,1.0647
2661.0,0.3383,-9.8505,-1.8572,0.0339,-0.9189,1.0647
2667.0,0.3383,-9.8505,-1.8572,0.0339,-0.9189,1.0647
2671.0,0.3383,-9.8505,-1.8572,0.0339,-0.9189,1.0647
2676.0,0.3383,-9.8505,-1.8572,0.0339,-0.9189,1.0647
2681.0,0.9561,-11.0708,-0.7719,0.0339,-0.9189,1.0647
2686.0,0.9561,-11.0708,-0.7719,0.2117,-1.6672,0.9034
2691.0,0.9561,-11.0708,-0.7719,0.2117,-1.6672,0.9034
2696.0,0.9561,-11.0708,-0.7719,0.2117,-1.6672,0.9034
2701.0,0.9561,-11.0708,-0.7719,0.2117,-1.6672,0.9034
2706.0,1.6362,-9.4834,0.1285,0.2117,-1.6672,0.9034
2711.0,1.6362,-9.4834,0.1285,0.2117,-1.6672,0.9034
2717.0,1.6362,-9.4834,0.1285,0.1365,-1.6116,0.0915
2722.0,1.6362,-9.4834,0.1285,0.1365,-1.6116,0.0915
2726.0,1.6362,-9.4834,0.1285,0.1365,-1.6116,0.0915
2731.0,1.6362,-9.4834,0.1285,0.1365,-1.6116,0.0915
2736.0,1.9427,-8.9639,0.683,0.1365,-1.6116,0.0915
2741.0,1.9427,-8.9639,0.683,0.1365,-1.6116,0.0915
2746.0,1.9427,-8.9639,0.683,0.1365,-1.6116,0.0915
2752.0,1.9427,-8.9639,0.683,-0.0131,-1.8083,-0.6647
2756.0,1.9427,-8.9639,0.683,-0.0131,-1.8083,-0.6647
2761.0,1.7032,-9.6312,0.9862,-0.0131,-1.8083,-0.6647
2766.0,1.7032,-9.6312,0.9862,-0.0131,-1.8083,-0.6647
2771.0,1.7032,-9.6312,0.9862,-0.0131,-1.8083,-0.6647
2777.0,1.7032,-9.6312,0.9862,0.0205,-1.239,-1.0141
2781.0,1.7032,-9.6312,0.9862,0.0205,-1.239,-1.0141
2786.0,1.3297,-9.9601,0.8914,0.0205,-1.239,-1.0141
2792.0,1.3297,-9.9601,0.8914,0.0205,-1.239,-1.0141
2796.0,1.3297,-9.9601,0.8914,0.0205,-1.239,-1.0141
2801.0,1.3297,-9.9601,0.8914,0.0205,-1.239,-1.0141
2806.0,1.3297,-9.9601,0.8914,0.0205,-1.239,-1.0141
2811.0,1.3297,-9.9601,0.8914,0.0205,-1.239,-1.0141
2816.0,1.2147,-9.6741,1.0384,-0.0241,0.122,-0.8235
2821.0,1.2147,-9.6741,1.0384,-0.0241,0.122,-0.8235
2826.0,1.2147,-9.6741,1.0384,-0.0241,0.122,-0.8235
2833.0,1.2147,-9.6741,1.0384,-0.0241,0.122,-0.8235
2836.0,1.2147,-9.6741,1.0384,-0.0241,0.122,-0.8235
2842.0,1.2147,-9.6741,1.0384,-0.0241,0.122,-0.8235
2846.0,1.071,-10.2175,-0.0232,0.0327,1.1752,0.0298
2851.0,1.071,-10.2175,-0.0232,0.0327,1.1752,0.0298
2856.0,1.071,-10.2175,-0.0232,0.0327,1.1752,0.0298
2861.0,1.071,-10.2175,-0.0232,0.0327,1.1752,0.0298
2866.0,1.071,-10.2175,-0.0232,0.0327,1.1752,0.0298
2871.0,1.1429,-10.637,-0.6535,0.0327,1.1752,0.0298
2876.0,1.1429,-10.637,-0.6535,0.2068,1.7097,-0.2151
2881.0,1.1429,-10.637,-0.6535,0.2068,1.7097,-0.2151
2886.0,1.1429,-10.637,-0.6535,0.2068,1.7097,-0.2151
2891.0,1.1429,-10.637,-0.6535,0.2068,1.7097,-0.2151
2896.0,0.8747,-10.7276,-2.1273,0.2068,1.7097,-0.2151
2901.0,0.8747,-10.7276,-2.1273,0.2068,1.7097,-0.2151
2907.0,0.8747,-10.7276,-2.1273,0.2068,1.7097,-0.2151
2912.0,0.8747,-10.7276,-2.1273,0.1176,2.2296,-1.1351
2916.0,0.8747,-10.7276,-2.1273,0.1176,2.2296,-1.1351
2921.0,0.6975,-10.6418,-3.7481,0.1176,2.2296,-1.1351
2926.0,0.6975,-10.6418,-3.7481,0.1176,2.2296,-1.1351
2931.0,0.6975,-10.6418,-3.7481,0.1176,2.2296,-1.1351
2937.0,0.6975,-10.6418,-3.7481,0.1176,2.2296,-1.1351
2941.0,0.6975,-10.6418,-3.7481,-0.098,1.5619,-2.0581
2946.0,0.6975,-10.6418,-3.7481,-0.098,1.5619,-2.0581
2951.0,1.2482,-10.3748,-4.5869,-0.098,1.5619,-2.0581
2956.0,1.2482,-10.3748,-4.5869,-0.098,1.5619,-2.0581
2961.0,1.2482,-10.3748,-4.5869,-0.098,1.5619,-2.0581
2966.0,1.2482,-10.3748,-4.5869,-0.098,1.5619,-2.0581
2971.0,1.2482,-10.3748,-4.5869,-0.5146,0.747,-2.4161
2976.0,1.2482,-10.3748,-4.5869,-0.5146,0.747,-2.4161
2982.0,1.9714,-10.0412,-3.7765,-0.5146,0.747,-2.4161
2986.0,1.9714,-10.0412,-3.7765,-0.5146,0.747,-2.4161
2991.0,1.9714,-10.0412,-3.7765,-0.5146,0.747,-2.4161
2999.0,1.9714,-10.0412,-3.7765,-0.5146,0.747,-2.4161
3001.0,1.9714,-10.0412,-3.7765,-0.8836,-0.3837,-1.5737
3006.0,2.3258,-9.1116,-2.9567,-0.8836,-0.3837,-1.5737
3011.0,2.3258,-9.1116,-2.9567,-0.8836,-0.3837,-1.5737
3016.0,2.3258,-9.1116,-2.9567,-0.8836,-0.3837,-1.5737
3022.0,2.3258,-9.1116,-2.9567,-0.8836,-0.3837,-1.5737
3026.0,2.3258,-9.1116,-2.9567,-0.8836,-0.3837,-1.5737
3031.0,3.1544,-9.2356,-0.6914,-0.9154,-1.4375,-1.1161
3036.0,3.1544,-9.2356,-0.6914,-0.9154,-1.4375,-1.1161
3041.0,3.1544,-9.2356,-0.6914,-0.9154,-1.4375,-1.1161
3046.0,3.1544,-9.2356,-0.6914,-0.9154,-1.4375,-1.1161
3051.0,3.1544,-9.2356,-0.6914,-0.9154,-1.4375,-1.1161
3056.0,3.8679,-8.3871,0.2943,-0.9154,-1.4375,-1.1161
3061.0,3.8679,-8.3871,0.2943,-0.9154,-1.4375,-1.1161
3066.0,3.8679,-8.3871,0.2943,-0.7621,-0.6513,-0.829
3071.0,3.8679,-8.3871,0.2943,-0.7621,-0.6513,-0.829
3076.0,3.8679,-8.3871,0.2943,-0.7621,-0.6513,-0.829
3082.0,3.8679,-8.3871,0.2943,-0.7621,-0.6513,-0.829
3086.0,3.753,-8.6492,-0.3028,-0.7621,-0.6513,-0.829
3091.0,3.753,-8.6492,-0.3028,-0.7621,-0.6513,-0.829
3096.0,3.753,-8.6492,-0.3028,-0.5134,0.3872,-0.8425
3101.0,3.753,-8.6492,-0.3028,-0.5134,0.3872,-0.8425
3106.0,3.753,-8.6492,-0.3028,-0.5134,0.3872,-0.8425
3111.0,2.5509,-8.797,-2.3311,-0.5134,0.3872,-0.8425
3116.0,2.5509,-8.797,-2.3311,-0.5134,0.3872,-0.8425
3122.0,2.5509,-8.797,-2.3311,-0.5134,0.3872,-0.8425
3126.0,2.5509,-8.797,-2.3311,-0.5134,0.3872,-0.8425
3131.0,2.5509,-8.797,-2.3311,-0.4291,0.8148,-0.9219
3136.0,1.1525,-8.9829,-4.2789,-0.4291,0.8148,-0.9219
3141.0,1.1525,-8.9829,-4.2789,-0.4291,0.8148,-0.9219
3146.0,1.1525,-8.9829,-4.2789,-0.4291,0.8148,-0.9219
3151.0,1.1525,-8.9829,-4.2789,-0.4291,0.8148,-0.9219
3156.0,1.1525,-8.9829,-4.2789,-0.4291,0.8148,-0.9219
3161.0,1.1525,-8.9829,-4.2789,-0.2996,-0.2664,-0.4595
3166.0,1.0231,-8.7446,-4.2694,-0.2996,-0.2664,-0.4595
3171.0,1.0231,-8.7446,-4.2694,-0.2996,-0.2664,-0.4595
3176.0,1.0231,-8.7446,-4.2694,-0.2996,-0.2664,-0.4595
3182.0,1.0231,-8.7446,-4.2694,-0.2996,-0.2664,-0.4595
3186.0,1.0231,-8.7446,-4.2694,-0.2996,-0.2664,-0.4595
3191.0,1.7655,-8.2107,-2.6107,-0.0101,-1.2817,0.3493
3196.0,1.7655,-8.2107,-2.6107,-0.0101,-1.2817,0.3493
3201.0,1.7655,-8.2107,-2.6107,-0.0101,-1.2817,0.3493
3207.0,1.7655,-8.2107,-2.6107,-0.0101,-1.2817,0.3493
3212.0,1.7655,-8.2107,-2.6107,-0.0101,-1.2817,0.3493
3217.0,2.1821,-7.6053,-1.6676,-0.0101,-1.2817,0.3493
3221.0,2.1821,-7.6053,-1.6676,-0.0101,-1.2817,0.3493
3226.0,2.1821,-7.6053,-1.6676,0.194,-1.0532,0.7788
3231.0,2.1821,-7.6053,-1.6676,0.194,-1.0532,0.7788
3237.0,2.1821,-7.6053,-1.6676,0.194,-1.0532,0.7788
3241.0,2.1821,-7.6053,-1.6676,0.194,-1.0532,0.7788
3246.0,2.3258,-7.1429,-1.8762,0.194,-1.0532,0.7788
3254.0,2.3258,-7.1429,-1.8762,0.15,-0.074,0.4813
3256.0,2.3258,-7.1429,-1.8762,0.15,-0.074,0.4813
3261.0,2.3258,-7.1429,-1.8762,0.15,-0.074,0.4813
3266.0,2.3258,-7.1429,-1.8762,0.15,-0.074,0.4813
3271.0,2.1007,-7.2287,-2.7102,0.15,-0.074,0.4813
3277.0,2.1007,-7.2287,-2.7102,0.15,-0.074,0.4813
3281.0,2.1007,-7.2287,-2.7102,0.15,-0.074,0.4813
3286.0,2.1007,-7.2287,-2.7102,0.0406,0.3463,0.4012
3291.0,2.1007,-7.2287,-2.7102,0.0406,0.3463,0.4012
3296.0,2.1007,-7.2287,-2.7102,0.0406,0.3463,0.4012
3301.0,1.8086,-7.8008,-3.9471,0.0406,0.3463,0.4012
3306.0,1.8086,-7.8008,-3.9471,0.0406,0.3463,0.4012
3311.0,1.8086,-7.8008,-3.9471,0.0406,0.3463,0.4012
3317.0,1.8086,-7.8008,-3.9471,0.0687,-0.1815,0.6175
3321.0,1.8086,-7.8008,-3.9471,0.0687,-0.1815,0.6175
3326.0,1.8086,-7.8008,-3.9471,0.0687,-0.1815,0.6175
3331.0,2.3354,-7.6673,-4.0988,0.0687,-0.1815,0.6175
3336.0,2.3354,-7.6673,-4.0988,0.0687,-0.1815,0.6175
3341.0,2.3354,-7.6673,-4.0988,0.0687,-0.1815,0.6175
3346.0,2.3354,-7.6673,-4.0988,0.0022,-0.286,0.7055
3351.0,2.3354,-7.6673,-4.0988,0.0022,-0.286,0.7055
3356.0,1.9283,-7.734,-4.7433,0.0022,-0.286,0.7055
3361.0,1.9283,-7.734,-4.7433,0.0022,-0.286,0.7055
3366.0,1.9283,-7.734,-4.7433,0.0022,-0.286,0.7055
3371.0,1.9283,-7.734,-4.7433,0.0022,-0.286,0.7055
3376.0,1.9283,-7.734,-4.7433,-0.0155,-0.0948,0.612
3381.0,1.9283,-7.734,-4.7433,-0.0155,-0.0948,0.612
3386.0,1.6697,-7.6339,-5.5821,-0.0155,-0.0948,0.612
3391.0,1.6697,-7.6339,-5.5821,-0.0155,-0.0948,0.612
3396.0,1.6697,-7.6339,-5.5821,-0.0155,-0.0948,0.612
3401.0,1.6697,-7.6339,-5.5821,-0.0155,-0.0948,0.612
3406.0,1.6697,-7.6339,-5.5821,-0.0155,-0.0948,0.612
3411.0,1.6218,-7.2621,-5.1745,0.1323,-0.592,0.6071
3416.0,1.6218,-7.2621,-5.1745,0.1323,-0.592,0.6071
3421.0,1.6218,-7.2621,-5.1745,0.1323,-0.592,0.6071
3426.0,1.6218,-7.2621,-5.1745,0.1323,-0.592,0.6071
3432.0,1.6218,-7.2621,-5.1745,0.1323,-0.592,0.6071
3436.0,1.3632,-7.2097,-3.658,0.1323,-0.592,0.6071
3441.0,1.3632,-7.2097,-3.658,0.4426,-1.3984,0.7091
3446.0,1.3632,-7.2097,-3.658,0.4426,-1.3984,0.7091
3451.0,1.3632,-7.2097,-3.658,0.4426,-1.3984,0.7091
3457.0,1.3632,-7.2097,-3.658,0.4426,-1.3984,0.7091
3461.0,1.3632,-7.2097,-3.658,0.4426,-1.3984,0.7091
3466.0,1.6889,-6.814,-1.4259,0.4426,-1.3984,0.7091
3471.0,1.6889,-6.814,-1.4259,0.7425,-1.7961,0.7586
3476.0,1.6889,-6.814,-1.4259,0.7425,-1.7961,0.7586
3481.0,1.6889,-6.814,-1.4259,0.7425,-1.7961,0.7586
3486.0,1.6889,-6.814,-1.4259,0.7425,-1.7961,0.7586
3491.0,1.6458,-6.7187,-0.99,0.7425,-1.7961,0.7586
3496.0,1.6458,-6.7187,-0.99,0.7425,-1.7961,0.7586
3501.0,1.6458,-6.7187,-0.99,0.4573,0.0017,0.174
3506.0,1.6458,-6.7187,-0.99,0.4573,0.0017,0.174
3512.0,1.6458,-6.7187,-0.99,0.4573,0.0017,0.174
3516.0,0.6304,-7.4766,-2.6107,0.4573,0.0017,0.174
3521.0,0.6304,-7.4766,-2.6107,0.4573,0.0017,0.174
3526.0,0.6304,-7.4766,-2.6107,0.4573,0.0017,0.174
3531.0,0.6304,-7.4766,-2.6107,0.4573,0.0017,0.174
3536.0,0.6304,-7.4766,-2.6107,-0.1512,1.9852,-0.7551
3541.0,0.6304,-7.4766,-2.6107,-0.1512,1.9852,-0.7551
3546.0,-0.179,-6.9666,-4.7812,-0.1512,1.9852,-0.7551
3551.0,-0.179,-6.9666,-4.7812,-0.1512,1.9852,-0.7551
3556.0,-0.179,-6.9666,-4.7812,-0.1512,1.9852,-0.7551
3561.0,-0.179,-6.9666,-4.7812,-0.1512,1.9852,-0.7551
3566.0,-0.179,-6.9666,-4.7812,-0.3314,1.2815,-0.8412
3571.0,1.1956,-6.8426,-5.0987,-0.3314,1.2815,-0.8412
3576.0,1.1956,-6.8426,-5.0987,-0.3314,1.2815,-0.8412
3581.0,1.1956,-6.8426,-5.0987,-0.3314,1.2815,-0.8412
3586.0,1.1956,-6.8426,-5.0987,-0.3314,1.2815,-0.8412
3591.0,1.1956,-6.8426,-5.0987,-0.3314,1.2815,-0.8412
3596.0,0.8699,-6.876,-4.3689,0.2123,-0.6464,0.0494
3601.0,0.8699,-6.876,-4.3689,0.2123,-0.6464,0.0494
3606.0,0.8699,-6.876,-4.3689,0.2123,-0.6464,0.0494
3612.0,0.8699,-6.876,-4.3689,0.2123,-0.6464,0.0494
3616.0,0.8699,-6.876,-4.3689,0.2123,-0.6464,0.0494
3621.0,0.8699,-6.876,-4.3689,0.2123,-0.6464,0.0494
3626.0,-0.155,-7.9533,-2.8571,0.4145,-1.4741,1.1997
3631.0,-0.155,-7.9533,-2.8571,0.4145,-1.4741,1.1997
3637.0,-0.155,-7.9533,-2.8571,0.4145,-1.4741,1.1997
3641.0,-0.155,-7.9533,-2.8571,0.4145,-1.4741,1.1997
3646.0,-0.155,-7.9533,-2.8571,0.4145,-1.4741,1.1997
3651.0,1.1812,-10.8563,-2.2648,0.4145,-1.4741,1.1997
3656.0,1.1812,-10.8563,-2.2648,0.4145,-1.4741,1.1997
3661.0,1.1812,-10.8563,-2.2648,0.6497,-0.3367,1.0689
3666.0,1.1812,-10.8563,-2.2648,0.6497,-0.3367,1.0689
3671.0,1.1812,-10.8563,-2.2648,0.6497,-0.3367,1.0689
3676.0,3.8009,-16.7576,-0.5682,0.6497,-0.3367,1.0689
3681.0,3.8009,-16.7576,-0.5682,0.6497,-0.3367,1.0689
3686.0,3.8009,-16.7576,-0.5682,0.6497,-0.3367,1.0689
3691.0,3.8009,-16.7576,-0.5682,0.5092,1.3383,0.1972
3696.0,3.8009,-16.7576,-0.5682,0.5092,1.3383,0.1972
3701.0,3.8009,-16.7576,-0.5682,0.5092,1.3383,0.1972
3706.0,6.0854,-19.5652,-2.1605,0.5092,1.3383,0.1972
3711.0,6.0854,-19.5652,-2.1605,0.5092,1.3383,0.1972
3716.0,6.0854,-19.5652,-2.1605,0.5092,1.3383,0.1972
3721.0,6.0854,-19.5652,-2.1605,-0.2709,0.3615,-0.5047
3726.0,6.0854,-19.5652,-2.1605,-0.2709,0.3615,-0.5047
3731.0,6.1524,-14.174,-0.734,-0.2709,0.3615,-0.5047
3736.0,6.1524,-14.174,-0.734,-0.2709,0.3615,-0.5047
3742.0,6.1524,-14.174,-0.734,-0.2709,0.3615,-0.5047
3746.0,6.1524,-14.174,-0.734,-0.2709,0.3615,-0.5047
3751.0,6.1524,-14.174,-0.734,-0.3589,-0.2762,0.3658
3756.0,5.2089,-4.3925,-3.0704,-0.3589,-0.2762,0.3658
3761.0,5.2089,-4.3925,-3.0704,-0.3589,-0.2762,0.3658
3766.0,5.2089,-4.3925,-3.0704,-0.3589,-0.2762,0.3658
3771.0,5.2089,-4.3925,-3.0704,-0.3589,-0.2762,0.3658
3776.0,5.2089,-4.3925,-3.0704,-0.3589,-0.2762,0.3658
3781.0,5.2089,-4.3925,-3.0704,-0.3589,-0.2762,0.3658
3787.0,-0.5238,-8.5253,-3.2742,-0.7841,1.2119,-0.9048
3791.0,-0.5238,-8.5253,-3.2742,-0.7841,1.2119,-0.9048
3796.0,-0.5238,-8.5253,-3.2742,-0.7841,1.2119,-0.9048
3801.0,-0.5238,-8.5253,-3.2742,-0.7841,1.2119,-0.9048
3806.0,-0.5238,-8.5253,-3.2742,-0.7841,1.2119,-0.9048
3812.0,-0.883,-13.5829,-0.3928,-0.2514,-2.79,0.2058
3816.0,-0.883,-13.5829,-0.3928,-0.2514,-2.79,0.2058
3821.0,-0.883,-13.5829,-0.3928,-0.2514,-2.79,0.2058
3826.0,-0.883,-13.5829,-0.3928,-0.2514,-2.79,0.2058
3831.0,-0.883,-13.5829,-0.3928,-0.2514,-2.79,0.2058
3836.0,-0.2173,-13.4113,-0.0895,-0.2514,-2.79,0.2058
3842.0,-0.2173,-13.4113,-0.0895,-0.2514,-2.79,0.2058
3846.0,-0.2173,-13.4113,-0.0895,0.2617,-4.286,0.9187
3851.0,-0.2173,-13.4113,-0.0895,0.2617,-4.286,0.9187
3856.0,-0.2173,-13.4113,-0.0895,0.2617,-4.286,0.9187
3861.0,-0.2173,-13.4113,-0.0895,0.2617,-4.286,0.9187
3866.0,-2.8465,-10.7323,0.4223,0.2617,-4.286,0.9187
3871.0,-2.8465,-10.7323,0.4223,0.2617,-4.286,0.9187
3876.0,-2.8465,-10.7323,0.4223,0.5843,-1.9971,1.9217
3881.0,-2.8465,-10.7323,0.4223,0.5843,-1.9971,1.9217
3887.0,-2.8465,-10.7323,0.4223,0.5843,-1.9971,1.9217
3891.0,-2.7268,-8.9257,-1.4875,0.5843,-1.9971,1.9217
3896.0,-2.7268,-8.9257,-1.4875,0.5843,-1.9971,1.9217
3901.0,-2.7268,-8.9257,-1.4875,0.5843,-1.9971,1.9217
3906.0,-2.7268,-8.9257,-1.4875,0.5843,-1.9971,1.9217
3911.0,-2.7268,-8.9257,-1.4875,0.7975,0.3353,0.8221
3916.0,-0.2221,-10.0698,0.664,0.7975,0.3353,0.8221
3922.0,-0.2221,-10.0698,0.664,0.7975,0.3353,0.8221
3926.0,-0.2221,-10.0698,0.664,0.7975,0.3353,0.8221
3931.0,-0.2221,-10.0698,0.664,0.7975,0.3353,0.8221
3936.0,-0.2221,-10.0698,0.664,0.7975,0.3353,0.8221
3941.0,-0.2221,-10.0698,0.664,-0.0663,0.725,0.3341
3946.0,0.5442,-9.9458,0.01,-0.0663,0.725,0.3341
3951.0,0.5442,-9.9458,0.01,-0.0663,0.725,0.3341
3956.0,0.5442,-9.9458,0.01,-0.0663,0.725,0.3341
3961.0,0.5442,-9.9458,0.01,-0.0663,0.725,0.3341
3966.0,0.5442,-9.9458,0.01,-0.0663,0.725,0.3341
3971.0,1.617,-8.8781,-0.9615,0.128,1.1636,0.6743
3976.0,1.617,-8.8781,-0.9615,0.128,1.1636,0.6743
3981.0,1.617,-8.8781,-0.9615,0.128,1.1636,0.6743
3987.0,1.617,-8.8781,-0.9615,0.128,1.1636,0.6743
3991.0,1.617,-8.8781,-0.9615,0.128,1.1636,0.6743
3996.0,2.4886,-8.4681,-1.9709,0.128,1.1636,0.6743
4001.0,2.4886,-8.4681,-1.9709,0.0278,1.174,0.488
4006.0,2.4886,-8.4681,-1.9709,0.0278,1.174,0.488
4011.0,2.4886,-8.4681,-1.9709,0.0278,1.174,0.488
4016.0,2.4886,-8.4681,-1.9709,0.0278,1.174,0.488
4021.0,2.4886,-8.4681,-1.9709,0.0278,1.174,0.488
4026.0,1.8852,-7.4242,-2.3785,0.0278,1.174,0.488
4031.0,1.8852,-7.4242,-2.3785,0.0278,1.174,0.488
4036.0,1.8852,-7.4242,-2.3785,-0.0846,0.1202,0.2394
4041.0,1.8852,-7.4242,-2.3785,-0.0846,0.1202,0.2394
4046.0,1.8852,-7.4242,-2.3785,-0.0846,0.1202,0.2394
4051.0,1.8852,-7.4242,-2.3785,-0.0846,0.1202,0.2394
4057.0,-0.2364,-8.6349,-3.5822,-0.0846,0.1202,0.2394
4062.0,-0.2364,-8.6349,-3.5822,-0.0846,0.1202,0.2394
4067.0,-0.2364,-8.6349,-3.5822,-0.0565,-1.1589,0.1954
4072.0,-0.2364,-8.6349,-3.5822,-0.0565,-1.1589,0.1954
4076.0,-0.2364,-8.6349,-3.5822,-0.0565,-1.1589,0.1954
4081.0,-0.2364,-8.6349,-3.5822,-0.0565,-1.1589,0.1954
4086.0,-1.3571,-9.4072,-2.5965,-0.0565,-1.1589,0.1954
4092.0,-1.3571,-9.4072,-2.5965,-0.0565,-1.1589,0.1954
4097.0,-1.3571,-9.4072,-2.5965,0.1469,-0.9384,-0.1601
4101.0,-1.3571,-9.4072,-2.5965,0.1469,-0.9384,-0.1601
4107.0,-1.3571,-9.4072,-2.5965,0.1469,-0.9384,-0.1601
4111.0,-0.792,-6.6186,-1.2079,0.1469,-0.9384,-0.1601
4116.0,-0.792,-6.6186,-1.2079,0.1469,-0.9384,-0.1601
4121.0,-0.792,-6.6186,-1.2079,0.1469,-0.9384,-0.1601
4126.0,-0.792,-6.6186,-1.2079,0.0956,-0.4186,-0.2903
4133.0,-0.792,-6.6186,-1.2079,0.0956,-0.4186,-0.2903
4136.0,-0.792,-6.6186,-1.2079,0.0956,-0.4186,-0.2903
4141.0,-0.8877,-6.4947,-1.4828,0.0956,-0.4186,-0.2903
4146.0,-0.8877,-6.4947,-1.4828,0.0956,-0.4186,-0.2903
4152.0,-0.8877,-6.4947,-1.4828,0.0956,-0.4186,-0.2903
4156.0,-0.8877,-6.4947,-1.4828,0.0956,-0.5022,-0.4521
4161.0,-0.8877,-6.4947,-1.4828,0.0956,-0.5022,-0.4521
4166.0,-1.6971,-10.4797,-4.3168,0.0956,-0.5022,-0.4521
4171.0,-1.6971,-10.4797,-4.3168,0.0956,-0.5022,-0.4521
4177.0,-1.6971,-10.4797,-4.3168,0.0956,-0.5022,-0.4521
4181.0,-1.6971,-10.4797,-4.3168,0.0956,-0.5022,-0.4521
4195.0,-1.6971,-10.4797,-4.3168,0.0956,-0.5022,-0.4521
4196.0,-1.6971,-10.4797,-4.3168,0.0956,-0.5022,-0.4521
4196.0,-1.6971,-10.4797,-4.3168,0.0956,-0.5022,-0.4521
4202.0,-0.6674,-8.7303,-5.6153,0.3485,-0.06,-0.7612
4206.0,-0.6674,-8.7303,-5.6153,0.3485,-0.06,-0.7612
4211.0,-0.6674,-8.7303,-5.6153,0.3485,-0.06,-0.7612
4216.0,-0.6674,-8.7303,-5.6153,0.3485,-0.06,-0.7612
4221.0,-0.6674,-8.7303,-5.6153,0.3485,-0.06,-0.7612
4226.0,1.2961,-5.4889,1.1995,0.3485,-0.06,-0.7612
4231.0,1.2961,-5.4889,1.1995,-0.1512,-1.0496,-0.5945
4236.0,1.2961,-5.4889,1.1995,-0.1512,-1.0496,-0.5945
4241.0,1.2961,-5.4889,1.1995,-0.1512,-1.0496,-0.5945
4246.0,1.2961,-5.4889,1.1995,-0.1512,-1.0496,-0.5945
4251.0,1.2961,-5.4889,1.1995,-0.1512,-1.0496,-0.5945
4257.0,0.64,-7.8103,-1.3359,-0.1512,-1.0496,-0.5945
4262.0,0.64,-7.8103,-1.3359,-0.2434,0.8918,-0.9897
4267.0,0.64,-7.8103,-1.3359,-0.2434,0.8918,-0.9897
4271.0,0.64,-7.8103,-1.3359,-0.2434,0.8918,-0.9897
4276.0,0.64,-7.8103,-1.3359,-0.2434,0.8918,-0.9897
4281.0,0.4341,-9.3595,-3.241,-0.2434,0.8918,-0.9897
4286.0,0.4341,-9.3595,-3.241,-0.2434,0.8918,-0.9897
4291.0,0.4341,-9.3595,-3.241,-0.2434,0.8918,-0.9897
4296.0,0.4341,-9.3595,-3.241,-0.2019,1.3872,-0.8718
4301.0,0.4341,-9.3595,-3.241,-0.2019,1.3872,-0.8718
4306.0,-0.179,-9.798,-6.5252,-0.2019,1.3872,-0.8718
4312.0,-0.179,-9.798,-6.5252,-0.2019,1.3872,-0.8718
4316.0,-0.179,-9.798,-6.5252,-0.2019,1.3872,-0.8718
4321.0,-0.179,-9.798,-6.5252,-0.2019,1.3872,-0.8718
4326.0,-0.179,-9.798,-6.5252,-0.1207,-0.3562,-1.1943
4331.0,-0.179,-9.798,-6.5252,-0.1207,-0.3562,-1.1943
4336.0,0.2808,-10.432,-5.9849,-0.1207,-0.3562,-1.1943
4341.0,0.2808,-10.432,-5.9849,-0.1207,-0.3562,-1.1943
4346.0,0.2808,-10.432,-5.9849,-0.1207,-0.3562,-1.1943
4351.0,0.2808,-10.432,-5.9849,-0.1207,-0.3562,-1.1943
4356.0,0.2808,-10.432,-5.9849,-0.2563,-0.6812,-1.7313
4361.0,0.7071,-12.7153,-4.0466,-0.2563,-0.6812,-1.7313
4366.0,0.7071,-12.7153,-4.0466,-0.2563,-0.6812,-1.7313
4371.0,0.7071,-12.7153,-4.0466,-0.2563,-0.6812,-1.7313
4376.0,0.7071,-12.7153,-4.0466,-0.2563,-0.6812,-1.7313
4381.0,0.7071,-12.7153,-4.0466,-0.2563,-0.6812,-1.7313
4386.0,0.7071,-12.7153,-4.0466,-0.2563,-0.6812,-1.7313
4391.0,-0.4471,-14.5744,-1.7292,-0.1781,0.4574,-2.4466
4396.0,-0.4471,-14.5744,-1.7292,-0.1781,0.4574,-2.4466
4401.0,-0.4471,-14.5744,-1.7292,-0.1781,0.4574,-2.4466
4407.0,-0.4471,-14.5744,-1.7292,-0.1781,0.4574,-2.4466
4411.0,-0.4471,-14.5744,-1.7292,-0.1781,0.4574,-2.4466
4416.0,0.3575,-12.7725,-3.4685,-0.1781,0.4574,-2.4466
4421.0,0.3575,-12.7725,-3.4685,0.2074,0.9516,-2.5639
4426.0,0.3575,-12.7725,-3.4685,0.2074,0.9516,-2.5639
4431.0,0.3575,-12.7725,-3.4685,0.2074,0.9516,-2.5639
4436.0,0.3575,-12.7725,-3.4685,0.2074,0.9516,-2.5639
4441.0,0.3575,-12.7725,-3.4685,0.2074,0.9516,-2.5639
4446.0,2.0816,-10.7085,-3.9045,0.2074,0.9516,-2.5639
4451.0,2.0816,-10.7085,-3.9045,0.2978,0.5661,-1.8681
4456.0,2.0816,-10.7085,-3.9045,0.2978,0.5661,-1.8681
4462.0,2.0816,-10.7085,-3.9045,0.2978,0.5661,-1.8681
4466.0,2.0816,-10.7085,-3.9045,0.2978,0.5661,-1.8681
4471.0,1.9762,-14.0358,-5.4068,0.2978,0.5661,-1.8681
4476.0,1.9762,-14.0358,-5.4068,0.2978,0.5661,-1.8681
4481.0,1.9762,-14.0358,-5.4068,0.1536,-0.5609,-1.3092
4486.0,1.9762,-14.0358,-5.4068,0.1536,-0.5609,-1.3092
4491.0,1.9762,-14.0358,-5.4068,0.1536,-0.5609,-1.3092
4496.0,1.9762,-14.0358,-5.4068,0.1536,-0.5609,-1.3092
4501.0,0.5394,-14.1454,-4.0988,0.1536,-0.5609,-1.3092
4506.0,0.5394,-14.1454,-4.0988,0.1536,-0.5609,-1.3092
4511.0,0.5394,-14.1454,-4.0988,0.2617,-0.5859,-0.7893
4516.0,0.5394,-14.1454,-4.0988,0.2617,-0.5859,-0.7893
4521.0,0.5394,-14.1454,-4.0988,0.2617,-0.5859,-0.7893
4526.0,0.9705,-9.2117,-2.9282,0.2617,-0.5859,-0.7893
4532.0,0.9705,-9.2117,-2.9282,0.2617,-0.5859,-0.7893
4536.0,0.9705,-9.2117,-2.9282,0.2617,-0.5859,-0.7893
4541.0,0.9705,-9.2117,-2.9282,0.2617,-0.5859,-0.7893
4546.0,0.9705,-9.2117,-2.9282,0.1628,-0.3685,-0.2737
4551.0,1.7703,-6.0943,-2.1605,0.1628,-0.3685,-0.2737
4556.0,1.7703,-6.0943,-2.1605,0.1628,-0.3685,-0.2737
4561.0,1.7703,-6.0943,-2.1605,0.1628,-0.3685,-0.2737
4566.0,1.7703,-6.0943,-2.1605,0.1628,-0.3685,-0.2737
4571.0,1.7703,-6.0943,-2.1605,0.1628,-0.3685,-0.2737
4576.0,1.1189,-6.8331,-1.9994,-0.0693,0.7066,0.2229
4581.0,1.1189,-6.8331,-1.9994,-0.0693,0.7066,0.2229
4586.0,1.1189,-6.8331,-1.9994,-0.0693,0.7066,0.2229
4591.0,1.1189,-6.8331,-1.9994,-0.0693,0.7066,0.2229
4596.0,1.1189,-6.8331,-1.9994,-0.0693,0.7066,0.2229
4601.0,1.1189,-6.8331,-1.9994,-0.0693,0.7066,0.2229
4606.0,0.2377,-8.8304,-4.2315,0.4426,0.8123,0.9413
4611.0,0.2377,-8.8304,-4.2315,0.4426,0.8123,0.9413
4616.0,0.2377,-8.8304,-4.2315,0.4426,0.8123,0.9413
4621.0,0.2377,-8.8304,-4.2315,0.4426,0.8123,0.9413
4626.0,0.2377,-8.8304,-4.2315,0.4426,0.8123,0.9413
4631.0,1.459,-6.7807,-3.5301,0.4426,0.8123,0.9413
4636.0,1.459,-6.7807,-3.5301,0.4426,0.8123,0.9413
4641.0,1.459,-6.7807,-3.5301,0.274,-0.5041,1.5802
4647.0,1.459,-6.7807,-3.5301,0.274,-0.5041,1.5802
4651.0,1.459,-6.7807,-3.5301,0.274,-0.5041,1.5802
4656.0,1.459,-6.7807,-3.5301,0.274,-0.5041,1.5802
4661.0,2.4982,-6.3469,-1.9141,0.274,-0.5041,1.5802
4666.0,2.4982,-6.3469,-1.9141,0.274,-0.5041,1.5802
4671.0,2.4982,-6.3469,-1.9141,-3.0E-4,0.0579,1.7391
4676.0,2.4982,-6.3469,-1.9141,-3.0E-4,0.0579,1.7391
4681.0,2.4982,-6.3469,-1.9141,-3.0E-4,0.0579,1.7391
4686.0,2.4312,-7.1715,-1.9567,-3.0E-4,0.0579,1.7391
4691.0,2.4312,-7.1715,-1.9567,-3.0E-4,0.0579,1.7391
4696.0,2.4312,-7.1715,-1.9567,-3.0E-4,0.0579,1.7391
4702.0,2.4312,-7.1715,-1.9567,-3.0E-4,0.0579,1.7391
4706.0,2.4312,-7.1715,-1.9567,-0.15,1.1508,1.8692
4711.0,1.7367,-7.8008,-3.3263,-0.15,1.1508,1.8692
4716.0,1.7367,-7.8008,-3.3263,-0.15,1.1508,1.8692
4722.0,1.7367,-7.8008,-3.3263,-0.15,1.1508,1.8692
4726.0,1.7367,-7.8008,-3.3263,-0.15,1.1508,1.8692
4731.0,1.7367,-7.8008,-3.3263,-0.15,1.1508,1.8692
4736.0,1.0231,-5.875,-5.7243,-0.0272,0.9376,1.6902
4741.0,1.0231,-5.875,-5.7243,-0.0272,0.9376,1.6902
4747.0,1.0231,-5.875,-5.7243,-0.0272,0.9376,1.6902
4752.0,1.0231,-5.875,-5.7243,-0.0272,0.9376,1.6902
4756.0,1.0231,-5.875,-5.7243,-0.0272,0.9376,1.6902
4761.0,-0.313,-4.7262,-6.0228,-0.0272,0.9376,1.6902
4766.0,-0.313,-4.7262,-6.0228,-0.1041,-0.5395,0.6816
4771.0,-0.313,-4.7262,-6.0228,-0.1041,-0.5395,0.6816
4776.0,-0.313,-4.7262,-6.0228,-0.1041,-0.5395,0.6816
4782.0,-0.313,-4.7262,-6.0228,-0.1041,-0.5395,0.6816
4786.0,-0.313,-4.7262,-6.0228,-0.1041,-0.5395,0.6816
4791.0,-0.8255,-6.9332,-3.9092,-0.1041,-0.5395,0.6816
4796.0,-0.8255,-6.9332,-3.9092,-0.2348,-1.2994,0.9559
4801.0,-0.8255,-6.9332,-3.9092,-0.2348,-1.2994,0.9559
4807.0,-0.8255,-6.9332,-3.9092,-0.2348,-1.2994,0.9559
4811.0,-0.8255,-6.9332,-3.9092,-0.2348,-1.2994,0.9559
4816.0,-0.5334,-7.3956,-0.2033,-0.2348,-1.2994,0.9559
4822.0,-0.5334,-7.3956,-0.2033,-0.2348,-1.2994,0.9559
4826.0,-0.5334,-7.3956,-0.2033,-0.2348,-1.2994,0.9559
4832.0,-0.5334,-7.3956,-0.2033,0.059,-0.1186,1.6083
4837.0,-0.5334,-7.3956,-0.2033,0.059,-0.1186,1.6083
4842.0,0.4197,-6.509,1.1853,0.059,-0.1186,1.6083
4846.0,0.4197,-6.509,1.1853,0.059,-0.1186,1.6083
4851.0,0.4197,-6.509,1.1853,0.059,-0.1186,1.6083
4856.0,0.4197,-6.509,1.1853,0.059,-0.1186,1.6083
4861.0,0.4197,-6.509,1.1853,0.3571,1.5918,1.1722
4866.0,0.4197,-6.509,1.1853,0.3571,1.5918,1.1722
4872.0,1.5116,-6.5566,-0.5208,0.3571,1.5918,1.1722
4876.0,1.5116,-6.5566,-0.5208,0.3571,1.5918,1.1722
4881.0,1.5116,-6.5566,-0.5208,0.3571,1.5918,1.1722
4886.0,1.5116,-6.5566,-0.5208,0.3571,1.5918,1.1722
4891.0,1.5116,-6.5566,-0.5208,0.3387,1.6847,0.3719
4896.0,2.8143,-8.3871,-2.8429,0.3387,1.6847,0.3719
4902.0,2.8143,-8.3871,-2.8429,0.3387,1.6847,0.3719
4906.0,2.8143,-8.3871,-2.8429,0.3387,1.6847,0.3719
4911.0,2.8143,-8.3871,-2.8429,0.3387,1.6847,0.3719
4918.0,2.8143,-8.3871,-2.8429,0.3387,1.6847,0.3719
4921.0,2.8143,-8.3871,-2.8429,0.2086,0.499,0.218
4926.0,4.9168,-14.2932,-13.6195,0.2086,0.499,0.218
4931.0,4.9168,-14.2932,-13.6195,0.2086,0.499,0.218
4936.0,4.9168,-14.2932,-13.6195,0.2086,0.499,0.218
4941.0,4.9168,-14.2932,-13.6195,0.2086,0.499,0.218
4946.0,4.9168,-14.2932,-13.6195,0.2086,0.499,0.218
4951.0,5.7405,-15.5706,-5.4115,-0.1243,-1.9005,-0.4338
4956.0,5.7405,-15.5706,-5.4115,-0.1243,-1.9005,-0.4338
4962.0,5.7405,-15.5706,-5.4115,-0.1243,-1.9005,-0.4338
4966.0,5.7405,-15.5706,-5.4115,-0.1243,-1.9005,-0.4338
4971.0,5.7405,-15.5706,-5.4115,-0.1243,-1.9005,-0.4338
4976.0,4.7348,-14.5363,1.6308,-0.1243,-1.9005,-0.4338
4981.0,4.7348,-14.5363,1.6308,-0.7749,-2.7215,0.3713
4986.0,4.7348,-14.5363,1.6308,-0.7749,-2.7215,0.3713
4991.0,4.7348,-14.5363,1.6308,-0.7749,-2.7215,0.3713
4997.0,4.7348,-14.5363,1.6308,-0.7749,-2.7215,0.3713
5001.0,4.7348,-14.5363,1.6308,-0.7749,-2.7215,0.3713
5006.0,2.5365,-11.3377,3.0572,-0.7749,-2.7215,0.3713
5011.0,2.5365,-11.3377,3.0572,-0.7749,-2.7215,0.3713
5017.0,2.5365,-11.3377,3.0572,-0.7889,-3.7044,0.9852
5021.0,2.5365,-11.3377,3.0572,-0.7889,-3.7044,0.9852
5026.0,2.5365,-11.3377,3.0572,-0.7889,-3.7044,0.9852
5031.0,-0.1071,-9.8409,3.2989,-0.7889,-3.7044,0.9852
5036.0,-0.1071,-9.8409,3.2989,-0.7889,-3.7044,0.9852
5041.0,-0.1071,-9.8409,3.2989,-0.7889,-3.7044,0.9852
5046.0,-0.1071,-9.8409,3.2989,-0.4627,-2.1186,0.2943
5051.0,-0.1071,-9.8409,3.2989,-0.4627,-2.1186,0.2943
5056.0,-0.1071,-9.8409,3.2989,-0.4627,-2.1186,0.2943
5061.0,-1.7881,-12.2101,3.5406,-0.4627,-2.1186,0.2943
5066.0,-1.7881,-12.2101,3.5406,-0.4627,-2.1186,0.2943
5072.0,-1.7881,-12.2101,3.5406,-0.4627,-2.1186,0.2943
5076.0,-1.7881,-12.2101,3.5406,-0.4627,-2.1186,0.2943
5081.0,-1.7881,-12.2101,3.5406,-0.4627,-2.1186,0.2943
5086.0,-2.4347,-13.3732,2.9909,0.0486,-0.4265,0.0353
5091.0,-2.4347,-13.3732,2.9909,0.0486,-0.4265,0.0353
5096.0,-2.4347,-13.3732,2.9909,0.0486,-0.4265,0.0353
5101.0,-2.4347,-13.3732,2.9909,0.0486,-0.4265,0.0353
5106.0,-2.4347,-13.3732,2.9909,0.0486,-0.4265,0.0353
5111.0,-2.4347,-13.3732,2.9909,0.0486,-0.4265,0.0353
5116.0,-5.2364,-9.5978,-14.6195,0.0486,-0.4265,0.0353
5121.0,-5.2364,-9.5978,-14.6195,0.3223,-1.7509,0.3603
5126.0,-5.2364,-9.5978,-14.6195,0.3223,-1.7509,0.3603
5133.0,-5.2364,-9.5978,-14.6195,0.3223,-1.7509,0.3603
5136.0,-5.2364,-9.5978,-14.6195,0.3223,-1.7509,0.3603
5141.0,-1.4673,-9.8648,2.6354,0.3223,-1.7509,0.3603
5146.0,-1.4673,-9.8648,2.6354,0.3223,-1.7509,0.3603
5151.0,-1.4673,-9.8648,2.6354,0.5862,-0.2994,0.262
5156.0,-1.4673,-9.8648,2.6354,0.5862,-0.2994,0.262
5161.0,-1.4673,-9.8648,2.6354,0.5862,-0.2994,0.262
5166.0,-0.3992,-8.8256,2.1141,0.5862,-0.2994,0.262
5171.0,-0.3992,-8.8256,2.1141,0.5862,-0.2994,0.262
5176.0,-0.3992,-8.8256,2.1141,0.5862,-0.2994,0.262
5183.0,-0.3992,-8.8256,2.1141,0.4316,0.929,0.1942
5186.0,-0.3992,-8.8256,2.1141,0.4316,0.929,0.1942
5191.0,-0.3992,-8.8256,2.1141,0.4316,0.929,0.1942
5196.0,0.2856,-9.5073,0.882,0.4316,0.929,0.1942
5202.0,0.2856,-9.5073,0.882,0.4316,0.929,0.1942
5206.0,0.2856,-9.5073,0.882,0.4316,0.929,0.1942
5211.0,0.2856,-9.5073,0.882,0.1769,0.747,0.601
5216.0,0.2856,-9.5073,0.882,0.1769,0.747,0.601
5221.0,0.7645,-10.3939,0.2517,0.1769,0.747,0.601
5226.0,0.7645,-10.3939,0.2517,0.1769,0.747,0.601
5231.0,0.7645,-10.3939,0.2517,0.1769,0.747,0.601
5236.0,0.7645,-10.3939,0.2517,0.1769,0.747,0.601
5241.0,0.7645,-10.3939,0.2517,0.1145,-0.0533,1.3114
5246.0,0.8364,-9.1498,0.1427,0.1145,-0.0533,1.3114
5251.0,0.8364,-9.1498,0.1427,0.1145,-0.0533,1.3114
5256.0,0.8364,-9.1498,0.1427,0.1145,-0.0533,1.3114
5262.0,0.8364,-9.1498,0.1427,0.1145,-0.0533,1.3114
5266.0,0.8364,-9.1498,0.1427,0.1145,-0.0533,1.3114
5271.0,0.8364,-9.1498,0.1427,0.1145,-0.0533,1.3114
5276.0,-0.1933,-9.2546,-3.7102,-0.0247,-0.5041,1.6743
5281.0,-0.1933,-9.2546,-3.7102,-0.0247,-0.5041,1.6743
5286.0,-0.1933,-9.2546,-3.7102,-0.0247,-0.5041,1.6743
5291.0,-0.1933,-9.2546,-3.7102,-0.0247,-0.5041,1.6743
5297.0,-0.1933,-9.2546,-3.7102,-0.0247,-0.5041,1.6743
5302.0,-1.2374,-10.8515,-4.1414,-0.0247,-0.5041,1.6743
5306.0,-1.2374,-10.8515,-4.1414,0.0858,0.1532,-0.5755
5311.0,-1.2374,-10.8515,-4.1414,0.0858,0.1532,-0.5755
5316.0,-1.2374,-10.8515,-4.1414,0.0858,0.1532,-0.5755
5321.0,-1.2374,-10.8515,-4.1414,0.0858,0.1532,-0.5755
5326.0,-0.1837,-8.9257,-0.5634,0.0858,0.1532,-0.5755
5331.0,-0.1837,-8.9257,-0.5634,0.1213,-0.7582,-0.4008
5336.0,-0.1837,-8.9257,-0.5634,0.1213,-0.7582,-0.4008
5341.0,-0.1837,-8.9257,-0.5634,0.1213,-0.7582,-0.4008
5346.0,-0.1837,-8.9257,-0.5634,0.1213,-0.7582,-0.4008
5351.0,-0.1837,-5.7701,-1.625,0.1213,-0.7582,-0.4008
5356.0,0.3,-5.7701,-1.625,0.1213,-0.7582,-0.4008
5361.0,0.3,-5.7701,-1.625,0.1213,-0.7582,-0.4008
5366.0,0.3,-5.7701,-1.625,0.062,-0.4851,-0.9066
5372.0,0.3,-5.7701,-1.625,0.062,-0.4851,-0.9066
5377.0,0.3,-5.7701,-1.625,0.062,-0.4851,-0.9066
5381.0,0.0078,-5.3792,-1.2506,0.062,-0.4851,-0.9066
5386.0,0.0078,-5.3792,-1.2506,0.062,-0.4851,-0.9066
5391.0,0.0078,-5.3792,-1.2506,0.062,-0.4851,-0.9066
5396.0,0.0078,-5.3792,-1.2506,-0.0473,-0.1345,-1.3489
5401.0,0.0078,-5.3792,-1.2506,-0.0473,-0.1345,-1.3489
5406.0,-0.6483,-6.733,-0.5492,-0.0473,-0.1345,-1.3489
5411.0,-0.6483,-6.733,-0.5492,-0.0473,-0.1345,-1.3489
5416.0,-0.6483,-6.733,-0.5492,-0.0473,-0.1345,-1.3489
5421.0,-0.6483,-6.733,-0.5492,-0.0473,-0.1345,-1.3489
5427.0,-0.6483,-6.733,-0.5492,-0.0473,-0.1345,-1.3489
5432.0,-0.6483,-6.733,-0.5492,-0.1072,0.0848,-0.6513
5436.0,-1.5582,-8.3394,0.5455,-0.1072,0.0848,-0.6513
5441.0,-1.5582,-8.3394,0.5455,-0.1072,0.0848,-0.6513
5446.0,-1.5582,-8.3394,0.5455,-0.1072,0.0848,-0.6513
5451.0,-1.5582,-8.3394,0.5455,-0.1072,0.0848,-0.6513
5457.0,-1.5582,-8.3394,0.5455,-0.1072,0.0848,-0.6513
5461.0,-1.7211,-6.5852,0.8346,-0.0846,0.3951,-0.4607
5467.0,-1.7211,-6.5852,0.8346,-0.0846,0.3951,-0.4607
5471.0,-1.7211,-6.5852,0.8346,-0.0846,0.3951,-0.4607
5476.0,-1.7211,-6.5852,0.8346,-0.0846,0.3951,-0.4607
5481.0,-1.7211,-6.5852,0.8346,-0.0846,0.3951,-0.4607
5486.0,-1.7211,-6.5852,0.8346,-0.0846,0.3951,-0.4607
5491.0,-2.655,-7.1477,-0.9283,-0.0321,0.6077,0.0903
5496.0,-2.655,-7.1477,-0.9283,-0.0321,0.6077,0.0903
5502.0,-2.655,-7.1477,-0.9283,-0.0321,0.6077,0.0903
5507.0,-2.655,-7.1477,-0.9283,-0.0321,0.6077,0.0903
5511.0,-2.655,-7.1477,-0.9283,-0.0321,0.6077,0.0903
5516.0,-0.9787,-9.5788,-4.8855,-0.0321,0.6077,0.0903
5521.0,-0.9787,-9.5788,-4.8855,0.1176,0.2949,-0.063
5526.0,-0.9787,-9.5788,-4.8855,0.1176,0.2949,-0.063
5531.0,-0.9787,-9.5788,-4.8855,0.1176,0.2949,-0.063
5536.0,-0.9787,-9.5788,-4.8855,0.1176,0.2949,-0.063
5542.0,-0.9787,-9.5788,-4.8855,0.1176,0.2949,-0.063
5546.0,-0.9787,-9.5788,-4.8855,0.1176,0.2949,-0.063
5551.0,1.5021,-10.0602,-5.383,0.0125,0.7922,-1.2255
5556.0,1.5021,-10.0602,-5.383,0.0125,0.7922,-1.2255
5561.0,1.5021,-10.0602,-5.383,0.0125,0.7922,-1.2255
5566.0,1.5021,-10.0602,-5.383,0.0125,0.7922,-1.2255
5571.0,1.5021,-10.0602,-5.383,0.0125,0.7922,-1.2255
5576.0,2.6563,-11.6142,-6.7384,0.0125,0.7922,-1.2255
5581.0,2.6563,-11.6142,-6.7384,-0.1652,1.7366,-2.8718
5586.0,2.6563,-11.6142,-6.7384,-0.1652,1.7366,-2.8718
5591.0,2.6563,-11.6142,-6.7384,-0.1652,1.7366,-2.8718
5596.0,2.6563,-11.6142,-6.7384,-0.1652,1.7366,-2.8718
5601.0,2.6563,-11.6142,-6.7384,-0.1652,1.7366,-2.8718
5606.0,2.7952,-10.8086,-5.0798,-0.1652,1.7366,-2.8718
5611.0,2.7952,-10.8086,-5.0798,-0.1652,1.7366,-2.8718
5616.0,2.7952,-10.8086,-5.0798,-0.4474,1.1782,-3.3941
5621.0,2.7952,-10.8086,-5.0798,-0.4474,1.1782,-3.3941
5626.0,2.7952,-10.8086,-5.0798,-0.4474,1.1782,-3.3941
5631.0,-0.9309,-12.5342,-0.4734,-0.4474,1.1782,-3.3941
5637.0,-0.9309,-12.5342,-0.4734,-0.4474,1.1782,-3.3941
5641.0,-0.9309,-12.5342,-0.4734,-0.4474,1.1782,-3.3941
5646.0,-0.9309,-12.5342,-0.4734,0.1023,0.7971,-3.4631
5651.0,-0.9309,-12.5342,-0.4734,0.1023,0.7971,-3.4631
5656.0,-0.701,-13.0347,-0.1985,0.1023,0.7971,-3.4631
5662.0,-0.701,-13.0347,-0.1985,0.1023,0.7971,-3.4631
5666.0,-0.701,-13.0347,-0.1985,0.1023,0.7971,-3.4631
5671.0,-0.701,-13.0347,-0.1985,0.1023,0.7971,-3.4631
5676.0,-0.701,-13.0347,-0.1985,0.1842,1.8649,-2.7539
5682.0,-0.701,-13.0347,-0.1985,0.1842,1.8649,-2.7539
5686.0,1.0471,-14.1454,-2.914,0.1842,1.8649,-2.7539
5691.0,1.0471,-14.1454,-2.914,0.1842,1.8649,-2.7539
5696.0,1.0471,-14.1454,-2.914,0.1842,1.8649,-2.7539
5701.0,1.0471,-14.1454,-2.914,0.1842,1.8649,-2.7539
5706.0,1.0471,-14.1454,-2.914,-0.2471,1.8038,-1.9738
5711.0,1.8565,-16.9244,-9.3022,-0.2471,1.8038,-1.9738
5716.0,1.8565,-16.9244,-9.3022,-0.2471,1.8038,-1.9738
5721.0,1.8565,-16.9244,-9.3022,-0.2471,1.8038,-1.9738
5726.0,1.8565,-16.9244,-9.3022,-0.2471,1.8038,-1.9738
5732.0,1.8565,-16.9244,-9.3022,-0.2471,1.8038,-1.9738
5736.0,1.8421,-14.4505,-6.8996,-0.5727,-1.7356,-2.0324
5741.0,1.8421,-14.4505,-6.8996,-0.5727,-1.7356,-2.0324
5746.0,1.8421,-14.4505,-6.8996,-0.5727,-1.7356,-2.0324
5751.0,1.8421,-14.4505,-6.8996,-0.5727,-1.7356,-2.0324
5756.0,1.8421,-14.4505,-6.8996,-0.5727,-1.7356,-2.0324
5761.0,1.8421,-14.4505,-6.8996,-0.5727,-1.7356,-2.0324
5766.0,1.1477,-8.654,-2.6344,-0.4022,-1.5328,-0.9714
5771.0,1.1477,-8.654,-2.6344,-0.4022,-1.5328,-0.9714
5776.0,1.1477,-8.654,-2.6344,-0.4022,-1.5328,-0.9714
5781.0,1.1477,-8.654,-2.6344,-0.4022,-1.5328,-0.9714
5786.0,1.1477,-8.654,-2.6344,-0.4022,-1.5328,-0.9714
5792.0,0.9657,-6.5137,-2.3595,-0.4022,-1.5328,-0.9714
5797.0,0.9657,-6.5137,-2.3595,-0.313,-0.3013,-0.2298
5801.0,0.9657,-6.5137,-2.3595,-0.313,-0.3013,-0.2298
5807.0,0.9657,-6.5137,-2.3595,-0.313,-0.3013,-0.2298
5812.0,0.9657,-6.5137,-2.3595,-0.313,-0.3013,-0.2298
5816.0,0.9657,-6.5137,-2.3595,-0.313,-0.3013,-0.2298
5822.0,0.4341,-7.6387,-2.7434,-0.313,-0.3013,-0.2298
5826.0,0.4341,-7.6387,-2.7434,0.1842,1.1648,0.4587
5831.0,0.4341,-7.6387,-2.7434,0.1842,1.1648,0.4587
5836.0,0.4341,-7.6387,-2.7434,0.1842,1.1648,0.4587
5846.0,-0.9021,-8.1916,-4.2694,0.1842,1.1648,0.4587
5846.0,-0.9021,-8.1916,-4.2694,0.1842,1.1648,0.4587
5853.0,-0.9021,-8.1916,-4.2694,0.1842,1.1648,0.4587
5856.0,-0.9021,-8.1916,-4.2694,1.1439,1.0872,1.5833
5861.0,-0.9021,-8.1916,-4.2694,1.1439,1.0872,1.5833
5867.0,-0.9021,-8.1916,-4.2694,1.1439,1.0872,1.5833
5871.0,-0.9021,-8.1916,-4.2694,1.1439,1.0872,1.5833
5876.0,0.276,-6.7139,-3.6391,1.1439,1.0872,1.5833
5881.0,0.276,-6.7139,-3.6391,1.1439,1.0872,1.5833
5887.0,0.276,-6.7139,-3.6391,1.1439,1.0872,1.5833
5891.0,0.276,-6.7139,-3.6391,1.2483,0.2907,2.2986
5896.0,0.276,-6.7139,-3.6391,1.2483,0.2907,2.2986
5901.0,3.049,-4.0827,-2.3548,1.2483,0.2907,2.2986
5906.0,3.049,-4.0827,-2.3548,1.2483,0.2907,2.2986
5911.0,3.049,-4.0827,-2.3548,1.2483,0.2907,2.2986
5917.0,3.049,-4.0827,-2.3548,1.2483,0.2907,2.2986
5922.0,3.049,-4.0827,-2.3548,0.5556,-0.1559,2.3964
5926.0,3.8344,-3.7776,-1.7245,0.5556,-0.1559,2.3964
5932.0,3.8344,-3.7776,-1.7245,0.5556,-0.1559,2.3964
5936.0,3.8344,-3.7776,-1.7245,0.5556,-0.1559,2.3964
5941.0,3.8344,-3.7776,-1.7245,0.5556,-0.1559,2.3964
5946.0,3.8344,-3.7776,-1.7245,0.5556,-0.1559,2.3964
5951.0,3.8344,-3.7776,-1.7245,0.0028,0.2204,2.565
5956.0,3.662,-6.4518,-2.3832,0.0028,0.2204,2.565
5961.0,3.662,-6.4518,-2.3832,0.0028,0.2204,2.565
5966.0,3.662,-6.4518,-2.3832,0.0028,0.2204,2.565
5972.0,3.662,-6.4518,-2.3832,0.0028,0.2204,2.565
5976.0,3.662,-6.4518,-2.3832,0.0028,0.2204,2.565
5982.0,0.1563,-8.6635,-5.4541,-0.0644,0.455,2.0891
5986.0,0.1563,-8.6635,-5.4541,-0.0644,0.455,2.0891
5991.0,0.1563,-8.6635,-5.4541,-0.0644,0.455,2.0891
5996.0,0.1563,-8.6635,-5.4541,-0.0644,0.455,2.0891
6001.0,0.1563,-8.6635,-5.4541,-0.0644,0.455,2.0891
6006.0,0.1563,-8.6635,-5.4541,-0.0644,0.455,2.0891
6011.0,-0.6818,-7.2621,-5.1034,0.2966,-0.4338,1.0689
6016.0,-0.6818,-7.2621,-5.1034,0.2966,-0.4338,1.0689
6022.0,-0.6818,-7.2621,-5.1034,0.2966,-0.4338,1.0689
6026.0,-0.6818,-7.2621,-5.1034,0.2966,-0.4338,1.0689
6031.0,-0.6818,-7.2621,-5.1034,0.2966,-0.4338,1.0689
6036.0,0.6448,-6.1753,-0.4118,0.2966,-0.4338,1.0689
6041.0,0.6448,-6.1753,-0.4118,0.2966,-0.4338,1.0689
6046.0,0.6448,-6.1753,-0.4118,0.0834,0.3157,1.5436
6051.0,0.6448,-6.1753,-0.4118,0.0834,0.3157,1.5436
6056.0,0.6448,-6.1753,-0.4118,0.0834,0.3157,1.5436
6061.0,0.6448,-6.1753,-0.4118,0.0834,0.3157,1.5436
6066.0,2.139,-6.0466,1.6971,0.0834,0.3157,1.5436
6071.0,2.139,-6.0466,1.6971,0.0834,0.3157,1.5436
6076.0,2.139,-6.0466,1.6971,0.1084,1.7561,1.5216
6082.0,2.139,-6.0466,1.6971,0.1084,1.7561,1.5216
6086.0,2.139,-6.0466,1.6971,0.1084,1.7561,1.5216
6091.0,2.139,-6.0466,1.6971,0.1084,1.7561,1.5216
6096.0,3.1975,-6.8712,-0.0279,0.1084,1.7561,1.5216
6101.0,3.1975,-6.8712,-0.0279,0.1084,1.7561,1.5216
6107.0,3.1975,-6.8712,-0.0279,-0.0437,2.0854,0.8246
6111.0,3.1975,-6.8712,-0.0279,-0.0437,2.0854,0.8246
6116.0,3.1975,-6.8712,-0.0279,-0.0437,2.0854,0.8246
6121.0,3.1496,-7.8341,-3.876,-0.0437,2.0854,0.8246
6126.0,3.1496,-7.8341,-3.876,-0.0437,2.0854,0.8246
6131.0,3.1496,-7.8341,-3.876,-0.0437,2.0854,0.8246
6136.0,3.1496,-7.8341,-3.876,-0.0437,2.0854,0.8246
6141.0,3.1496,-7.8341,-3.876,0.3687,0.7885,-0.4521
6146.0,3.7674,-13.6973,-19.6476,0.3687,0.7885,-0.4521
6151.0,3.7674,-13.6973,-19.6476,0.3687,0.7885,-0.4521
6156.0,3.7674,-13.6973,-19.6476,0.3687,0.7885,-0.4521
6161.0,3.7674,-13.6973,-19.6476,0.3687,0.7885,-0.4521
6167.0,3.7674,-13.6973,-19.6476,0.3687,0.7885,-0.4521
6172.0,5.7501,-17.0722,-5.2835,-0.3173,-3.6067,-0.7276
6177.0,5.7501,-17.0722,-5.2835,-0.3173,-3.6067,-0.7276
6182.0,5.7501,-17.0722,-5.2835,-0.3173,-3.6067,-0.7276
6187.0,5.7501,-17.0722,-5.2835,-0.3173,-3.6067,-0.7276
6191.0,5.7501,-17.0722,-5.2835,-0.3173,-3.6067,-0.7276
6196.0,5.7501,-17.0722,-5.2835,-0.3173,-3.6067,-0.7276
6202.0,5.1227,-14.0977,2.0573,-1.0858,-2.7252,-0.2127
6207.0,5.1227,-14.0977,2.0573,-1.0858,-2.7252,-0.2127
6212.0,5.1227,-14.0977,2.0573,-1.0858,-2.7252,-0.2127
6216.0,5.1227,-14.0977,2.0573,-1.0858,-2.7252,-0.2127
6221.0,5.1227,-14.0977,2.0573,-1.0858,-2.7252,-0.2127
6226.0,2.6371,-8.3299,3.9292,-1.0858,-2.7252,-0.2127
6231.0,2.6371,-8.3299,3.9292,-1.0699,-3.3648,0.4214
6236.0,2.6371,-8.3299,3.9292,-1.0699,-3.3648,0.4214
6241.0,2.6371,-8.3299,3.9292,-1.0699,-3.3648,0.4214
6247.0,2.6371,-8.3299,3.9292,-1.0699,-3.3648,0.4214
6251.0,0.0414,-7.0714,4.3131,-1.0699,-3.3648,0.4214
6256.0,0.0414,-7.0714,4.3131,-1.0699,-3.3648,0.4214
6261.0,0.0414,-7.0714,4.3131,-0.6099,-1.0777,-0.377
6266.0,0.0414,-7.0714,4.3131,-0.6099,-1.0777,-0.377
6271.0,0.0414,-7.0714,4.3131,-0.6099,-1.0777,-0.377
6276.0,0.0414,-7.0714,4.3131,-0.6099,-1.0777,-0.377
6281.0,-1.1895,-10.7514,4.4742,-0.6099,-1.0777,-0.377
6286.0,-1.1895,-10.7514,4.4742,-0.6099,-1.0777,-0.377
6291.0,-1.1895,-10.7514,4.4742,-0.6099,-1.0777,-0.377
6296.0,-1.1895,-10.7514,4.4742,0.362,1.4538,-0.9029
6301.0,-1.1895,-10.7514,4.4742,0.362,1.4538,-0.9029
6306.0,-1.7642,-17.5822,1.2421,0.362,1.4538,-0.9029
6311.0,-1.7642,-17.5822,1.2421,0.362,1.4538,-0.9029
6317.0,-1.7642,-17.5822,1.2421,0.362,1.4538,-0.9029
6321.0,-1.7642,-17.5822,1.2421,0.362,1.4538,-0.9029
6326.0,-1.7642,-17.5822,1.2421,0.0235,0.3139,3.0048
6331.0,-7.1377,-21.8533,-33.0591,0.0235,0.3139,3.0048
6336.0,-7.1377,-21.8533,-33.0591,0.0235,0.3139,3.0048
6341.0,-7.1377,-21.8533,-33.0591,0.0235,0.3139,3.0048
6346.0,-7.1377,-21.8533,-33.0591,0.0235,0.3139,3.0048
6351.0,-7.1377,-21.8533,-33.0591,0.0235,0.3139,3.0048
6356.0,-7.1377,-21.8533,-33.0591,0.2532,-8.7087,-0.1675
6361.0,-1.065,-12.6009,3.5832,0.2532,-8.7087,-0.1675
6366.0,-1.065,-12.6009,3.5832,0.2532,-8.7087,-0.1675
6372.0,-1.065,-12.6009,3.5832,0.2532,-8.7087,-0.1675
6376.0,-1.065,-12.6009,3.5832,0.2532,-8.7087,-0.1675
6381.0,-1.065,-12.6009,3.5832,0.2532,-8.7087,-0.1675
6386.0,-1.065,-12.6009,3.5832,0.2532,-8.7087,-0.1675
6392.0,-0.677,-7.7054,5.332,1.2208,-1.6892,0.8264
6396.0,-0.677,-7.7054,5.332,1.2208,-1.6892,0.8264
6401.0,-0.677,-7.7054,5.332,1.2208,-1.6892,0.8264
6406.0,-0.677,-7.7054,5.332,1.2208,-1.6892,0.8264
6412.0,-0.677,-7.7054,5.332,1.2208,-1.6892,0.8264
6417.0,-0.1358,-5.9941,3.0383,1.2208,-1.6892,0.8264
6422.0,-0.1358,-5.9941,3.0383,0.7621,2.1837,-0.3177
6426.0,-0.1358,-5.9941,3.0383,0.7621,2.1837,-0.3177
6431.0,-0.1358,-5.9941,3.0383,0.7621,2.1837,-0.3177
6436.0,-0.1358,-5.9941,3.0383,0.7621,2.1837,-0.3177
6441.0,-0.1358,-5.9941,3.0383,0.7621,2.1837,-0.3177
6446.0,0.8938,-9.4453,1.7871,0.7621,2.1837,-0.3177
6452.0,0.8938,-9.4453,1.7871,0.0254,3.4397,-0.2267
6456.0,0.8938,-9.4453,1.7871,0.0254,3.4397,-0.2267
6461.0,0.8938,-9.4453,1.7871,0.0254,3.4397,-0.2267
6466.0,0.8938,-9.4453,1.7871,0.0254,3.4397,-0.2267
6471.0,1.9618,-11.2805,0.9104,0.0254,3.4397,-0.2267
6476.0,1.9618,-11.2805,0.9104,0.0254,3.4397,-0.2267
6482.0,1.9618,-11.2805,0.9104,-0.4096,3.3145,1.4129
6486.0,1.9618,-11.2805,0.9104,-0.4096,3.3145,1.4129
6491.0,1.9618,-11.2805,0.9104,-0.4096,3.3145,1.4129
6497.0,1.9618,-11.2805,0.9104,-0.4096,3.3145,1.4129
6501.0,2.0528,-8.6111,-0.227,-0.4096,3.3145,1.4129
6506.0,2.0528,-8.6111,-0.227,-0.4096,3.3145,1.4129
6511.0,2.0528,-8.6111,-0.227,-0.4096,3.3145,1.4129
6516.0,2.0528,-8.6111,-0.227,-0.7486,1.5546,2.3218
6522.0,2.0528,-8.6111,-0.227,-0.7486,1.5546,2.3218
6526.0,2.0528,-8.6111,-0.227,-0.7486,1.5546,2.3218
6532.0,1.3392,-6.7282,-0.4829,-0.7486,1.5546,2.3218
6536.0,1.3392,-6.7282,-0.4829,-0.7486,1.5546,2.3218
6541.0,1.3392,-6.7282,-0.4829,-0.7486,1.5546,2.3218
6547.0,1.3392,-6.7282,-0.4829,-0.3992,-0.2994,2.0818
6551.0,1.3392,-6.7282,-0.4829,-0.3992,-0.2994,2.0818
6557.0,-0.7297,-9.0592,-24.2777,-0.3992,-0.2994,2.0818
6561.0,-0.7297,-9.0592,-24.2777,-0.3992,-0.2994,2.0818
6567.0,-0.7297,-9.0592,-24.2777,-0.3992,-0.2994,2.0818
6571.0,-0.7297,-9.0592,-24.2777,-0.3992,-0.2994,2.0818
6577.0,-0.7297,-9.0592,-24.2777,-0.3992,-0.2994,2.0818
6581.0,-0.7297,-9.0592,-24.2777,0.4047,-2.9964,-0.1901
6586.0,0.8124,-6.5566,-0.4876,0.4047,-2.9964,-0.1901
6591.0,0.8124,-6.5566,-0.4876,0.4047,-2.9964,-0.1901
6596.0,0.8124,-6.5566,-0.4876,0.4047,-2.9964,-0.1901
6601.0,0.8124,-6.5566,-0.4876,0.4047,-2.9964,-0.1901
6606.0,0.8124,-6.5566,-0.4876,0.4047,-2.9964,-0.1901
6612.0,0.2377,-8.1344,2.1805,0.4047,-2.9964,-0.1901
6616.0,0.2377,-8.1344,2.1805,0.0443,-0.9903,-0.7411
6621.0,0.2377,-8.1344,2.1805,0.0443,-0.9903,-0.7411
6626.0,0.2377,-8.1344,2.1805,0.0443,-0.9903,-0.7411
6632.0,0.2377,-8.1344,2.1805,0.0443,-0.9903,-0.7411
6636.0,-1.2134,-9.1116,-0.1227,0.0443,-0.9903,-0.7411
6641.0,-1.2134,-9.1116,-0.1227,0.0443,-0.9903,-0.7411
6646.0,-1.2134,-9.1116,-0.1227,0.0333,0.8123,-0.8645
6651.0,-1.2134,-9.1116,-0.1227,0.0333,0.8123,-0.8645
6657.0,-1.2134,-9.1116,-0.1227,0.0333,0.8123,-0.8645
6661.0,-1.2134,-9.1116,-0.1227,0.0333,0.8123,-0.8645
6666.0,-4.4509,-7.8961,-6.1081,0.0333,0.8123,-0.8645
6671.0,-4.4509,-7.8961,-6.1081,0.0333,0.8123,-0.8645
6676.0,-4.4509,-7.8961,-6.1081,0.624,0.2754,-1.8938
6681.0,-4.4509,-7.8961,-6.1081,0.624,0.2754,-1.8938
6687.0,-4.4509,-7.8961,-6.1081,0.624,0.2754,-1.8938
6691.0,-0.6387,-6.3517,1.2516,0.624,0.2754,-1.8938
6696.0,-0.6387,-6.3517,1.2516,0.624,0.2754,-1.8938
6701.0,-0.6387,-6.3517,1.2516,0.624,0.2754,-1.8938
6707.0,-0.6387,-6.3517,1.2516,0.0187,0.8026,-1.4246
6711.0,-0.6387,-6.3517,1.2516,0.0187,0.8026,-1.4246
6716.0,-0.4855,-7.7388,1.408,0.0187,0.8026,-1.4246
6721.0,-0.4855,-7.7388,1.408,0.0187,0.8026,-1.4246
6726.0,-0.4855,-7.7388,1.408,0.0187,0.8026,-1.4246
6731.0,-0.4855,-7.7388,1.408,0.0187,0.8026,-1.4246
6736.0,-0.4855,-7.7388,1.408,0.0187,0.8026,-1.4246
6741.0,-0.4855,-7.7388,1.408,0.1072,1.7085,-0.669
6746.0,0.7645,-10.6037,-3.6391,0.1072,1.7085,-0.669
6752.0,0.7645,-10.6037,-3.6391,0.1072,1.7085,-0.669
6756.0,0.7645,-10.6037,-3.6391,0.1072,1.7085,-0.669
6761.0,0.7645,-10.6037,-3.6391,0.1072,1.7085,-0.669
6766.0,0.7645,-10.6037,-3.6391,0.1072,1.7085,-0.669
6771.0,1.3392,-10.9898,-5.9375,0.0755,0.4287,-0.8724
6776.0,1.3392,-10.9898,-5.9375,0.0755,0.4287,-0.8724
6781.0,1.3392,-10.9898,-5.9375,0.0755,0.4287,-0.8724
6786.0,1.3392,-10.9898,-5.9375,0.0755,0.4287,-0.8724
6791.0,1.3392,-10.9898,-5.9375,0.0755,0.4287,-0.8724
6796.0,1.3392,-10.9898,-5.9375,0.0755,0.4287,-0.8724
6801.0,0.3622,-11.3759,-3.2599,0.1109,-0.4173,-1.0483
6806.0,0.3622,-11.3759,-3.2599,0.1109,-0.4173,-1.0483
6811.0,0.3622,-11.3759,-3.2599,0.1109,-0.4173,-1.0483
6816.0,0.3622,-11.3759,-3.2599,0.1109,-0.4173,-1.0483
6821.0,0.3622,-11.3759,-3.2599,0.1109,-0.4173,-1.0483
6826.0,-1.5008,-12.6105,-4.4589,0.1109,-0.4173,-1.0483
6831.0,-1.5008,-12.6105,-4.4589,0.1109,-0.4173,-1.0483
6836.0,-1.5008,-12.6105,-4.4589,0.3998,-0.2744,-2.3703
6841.0,-1.5008,-12.6105,-4.4589,0.3998,-0.2744,-2.3703
6847.0,-1.5008,-12.6105,-4.4589,0.3998,-0.2744,-2.3703
6851.0,-0.5956,-13.4399,-3.2647,0.3998,-0.2744,-2.3703
6856.0,-0.5956,-13.4399,-3.2647,0.3998,-0.2744,-2.3703
6861.0,-0.5956,-13.4399,-3.2647,0.4298,1.6547,-2.9188
6866.0,-0.5956,-13.4399,-3.2647,0.4298,1.6547,-2.9188
6871.0,-0.5956,-13.4399,-3.2647,0.4298,1.6547,-2.9188
6876.0,-0.5956,-13.4399,-3.2647,0.4298,1.6547,-2.9188
6881.0,0.5969,-12.8393,-3.8997,0.4298,1.6547,-2.9188
6886.0,0.5969,-12.8393,-3.8997,0.4298,1.6547,-2.9188
6891.0,0.5969,-12.8393,-3.8997,0.4298,1.6547,-2.9188
6896.0,0.5969,-12.8393,-3.8997,0.4841,1.7763,-2.8339
6901.0,0.5969,-12.8393,-3.8997,0.4841,1.7763,-2.8339
6906.0,0.5969,-12.8393,-3.8997,0.4841,1.7763,-2.8339
6911.0,1.6745,-10.1365,-3.2126,0.4841,1.7763,-2.8339
6916.0,1.6745,-10.1365,-3.2126,0.4841,1.7763,-2.8339
6921.0,1.6745,-10.1365,-3.2126,0.4841,1.7763,-2.8339
6926.0,1.6745,-10.1365,-3.2126,0.2935,0.0243,-1.7343
6931.0,1.6745,-10.1365,-3.2126,0.2935,0.0243,-1.7343
6936.0,2.7233,-12.1147,-5.3736,0.2935,0.0243,-1.7343
6941.0,2.7233,-12.1147,-5.3736,0.2935,0.0243,-1.7343
6946.0,2.7233,-12.1147,-5.3736,0.2935,0.0243,-1.7343
6951.0,2.7233,-12.1147,-5.3736,0.2935,0.0243,-1.7343
6956.0,2.7233,-12.1147,-5.3736,0.0058,-1.2878,-0.9775
6962.0,2.7233,-12.1147,-5.3736,0.0058,-1.2878,-0.9775
6966.0,-0.0161,-15.1416,-4.203,0.0058,-1.2878,-0.9775
6971.0,-0.0161,-15.1416,-4.203,0.0058,-1.2878,-0.9775
6977.0,-0.0161,-15.1416,-4.203,0.0058,-1.2878,-0.9775
6982.0,-0.0161,-15.1416,-4.203,0.0058,-1.2878,-0.9775
6987.0,-0.0161,-15.1416,-4.203,0.5275,-0.1675,-0.6891
6992.0,0.2186,-9.9887,-3.6959,0.5275,-0.1675,-0.6891
6996.0,0.2186,-9.9887,-3.6959,0.5275,-0.1675,-0.6891
7001.0,0.2186,-9.9887,-3.6959,0.5275,-0.1675,-0.6891
7007.0,0.2186,-9.9887,-3.6959,0.5275,-0.1675,-0.6891
7012.0,0.2186,-9.9887,-3.6959,0.5275,-0.1675,-0.6891
7016.0,0.7023,-6.4756,-4.1035,0.4059,-0.1828,-0.0771
7021.0,0.7023,-6.4756,-4.1035,0.4059,-0.1828,-0.0771
7026.0,0.7023,-6.4756,-4.1035,0.4059,-0.1828,-0.0771
7031.0,0.7023,-6.4756,-4.1035,0.4059,-0.1828,-0.0771
7036.0,0.7023,-6.4756,-4.1035,0.4059,-0.1828,-0.0771
7043.0,-0.1885,-6.1228,-3.0799,0.4059,-0.1828,-0.0771
7047.0,-0.1885,-6.1228,-3.0799,0.1365,-0.0471,0.3078
7051.0,-0.1885,-6.1228,-3.0799,0.1365,-0.0471,0.3078
7056.0,-0.1885,-6.1228,-3.0799,0.1365,-0.0471,0.3078
7061.0,-0.1885,-6.1228,-3.0799,0.1365,-0.0471,0.3078
7066.0,-0.1885,-6.1228,-3.0799,0.1365,-0.0471,0.3078
7071.0,-0.2125,-6.4184,-1.4544,0.1365,-0.0471,0.3078
7076.0,-0.2125,-6.4184,-1.4544,0.1365,-0.0471,0.3078
7081.0,-0.2125,-6.4184,-1.4544,-0.051,0.1154,0.8429
7086.0,-0.2125,-6.4184,-1.4544,-0.051,0.1154,0.8429
7091.0,-0.2125,-6.4184,-1.4544,-0.051,0.1154,0.8429
7096.0,0.2617,-6.9332,-1.3596,-0.051,0.1154,0.8429
7102.0,0.2617,-6.9332,-1.3596,-0.051,0.1154,0.8429
7107.0,0.2617,-6.9332,-1.3596,-0.051,0.1154,0.8429
7111.0,0.2617,-6.9332,-1.3596,-0.1035,0.1887,1.2284
7116.0,0.2617,-6.9332,-1.3596,-0.1035,0.1887,1.2284
7121.0,0.2617,-6.9332,-1.3596,-0.1035,0.1887,1.2284
7126.0,1.7415,-6.0037,-1.4828,-0.1035,0.1887,1.2284
7131.0,1.7415,-6.0037,-1.4828,-0.1035,0.1887,1.2284
7136.0,1.7415,-6.0037,-1.4828,-0.1035,0.1887,1.2284
7141.0,1.7415,-6.0037,-1.4828,0.0235,0.9559,1.5576
7146.0,1.7415,-6.0037,-1.4828,0.0235,0.9559,1.5576
7151.0,1.7415,-6.0037,-1.4828,0.0235,0.9559,1.5576
7156.0,1.7511,-6.0609,-2.6202,0.0235,0.9559,1.5576
7161.0,1.7511,-6.0609,-2.6202,0.0235,0.9559,1.5576
7166.0,1.7511,-6.0609,-2.6202,0.0235,0.9559,1.5576
7171.0,1.7511,-6.0609,-2.6202,0.0235,0.9559,1.5576
7176.0,1.7511,-6.0609,-2.6202,0.0852,1.218,1.6322
7186.0,-0.3801,-7.1715,-4.0845,0.0852,1.218,1.6322
7187.0,-0.3801,-7.1715,-4.0845,0.0852,1.218,1.6322
7191.0,-0.3801,-7.1715,-4.0845,0.0852,1.218,1.6322
7196.0,-0.3801,-7.1715,-4.0845,0.0852,1.218,1.6322
7201.0,-0.3801,-7.1715,-4.0845,0.0852,1.218,1.6322
7206.0,-0.3274,-7.9628,-3.9803,-0.0901,0.7568,1.7861
7211.0,-0.3274,-7.9628,-3.9803,-0.0901,0.7568,1.7861
7216.0,-0.3274,-7.9628,-3.9803,-0.0901,0.7568,1.7861
7221.0,-0.3274,-7.9628,-3.9803,-0.0901,0.7568,1.7861
7227.0,-0.3274,-7.9628,-3.9803,-0.0901,0.7568,1.7861
7231.0,-0.3274,-7.9628,-3.9803,-0.0901,0.7568,1.7861
7236.0,-0.1694,-9.1116,-3.7386,-0.04,0.5204,1.656
7241.0,-0.1694,-9.1116,-3.7386,-0.04,0.5204,1.656
7246.0,-0.1694,-9.1116,-3.7386,-0.04,0.5204,1.656
7251.0,-0.1694,-9.1116,-3.7386,-0.04,0.5204,1.656
7256.0,-0.1694,-9.1116,-3.7386,-0.04,0.5204,1.656
7261.0,-0.495,-9.5883,-4.0419,-0.04,0.5204,1.656
7266.0,-0.495,-9.5883,-4.0419,0.4536,0.196,1.1459
7271.0,-0.495,-9.5883,-4.0419,0.4536,0.196,1.1459
7276.0,-0.495,-9.5883,-4.0419,0.4536,0.196,1.1459
7282.0,-0.495,-9.5883,-4.0419,0.4536,0.196,1.1459
7287.0,0.5155,-9.3166,-5.1129,0.4536,0.196,1.1459
7291.0,0.5155,-9.3166,-5.1129,0.4536,0.196,1.1459
7296.0,0.5155,-9.3166,-5.1129,0.3864,0.2063,1.1422
7301.0,0.5155,-9.3166,-5.1129,0.3864,0.2063,1.1422
7306.0,0.5155,-9.3166,-5.1129,0.3864,0.2063,1.1422
7311.0,0.5155,-9.3166,-5.1129,0.3864,0.2063,1.1422
7317.0,2.5701,-8.2441,-6.2314,0.3864,0.2063,1.1422
7321.0,2.5701,-8.2441,-6.2314,0.3864,0.2063,1.1422
7326.0,2.5701,-8.2441,-6.2314,0.4627,0.2082,1.1606
7331.0,2.5701,-8.2441,-6.2314,0.4627,0.2082,1.1606
7336.0,2.5701,-8.2441,-6.2314,0.4627,0.2082,1.1606
7341.0,4.1697,-5.3173,-5.8096,0.4627,0.2082,1.1606
7346.0,4.1697,-5.3173,-5.8096,0.4627,0.2082,1.1606
7351.0,4.1697,-5.3173,-5.8096,0.4627,0.2082,1.1606
7356.0,4.1697,-5.3173,-5.8096,0.0437,-0.6354,0.6945
7361.0,4.1697,-5.3173,-5.8096,0.0437,-0.6354,0.6945
7366.0,3.9542,-5.5318,-3.0514,0.0437,-0.6354,0.6945
7371.0,3.9542,-5.5318,-3.0514,0.0437,-0.6354,0.6945
7376.0,3.9542,-5.5318,-3.0514,0.0437,-0.6354,0.6945
7381.0,3.9542,-5.5318,-3.0514,0.0437,-0.6354,0.6945
7386.0,3.9542,-5.5318,-3.0514,-0.442,-1.5114,-0.0911
7392.0,3.9542,-5.5318,-3.0514,-0.442,-1.5114,-0.0911
7396.0,2.2588,-8.4347,-1.4828,-0.442,-1.5114,-0.0911
7401.0,2.2588,-8.4347,-1.4828,-0.442,-1.5114,-0.0911
7406.0,2.2588,-8.4347,-1.4828,-0.442,-1.5114,-0.0911
7411.0,2.2588,-8.4347,-1.4828,-0.442,-1.5114,-0.0911
7416.0,2.2588,-8.4347,-1.4828,-0.442,-1.5114,-0.0911
7421.0,2.2588,-8.4347,-1.4828,-0.2648,-0.7228,-0.1088
7426.0,-0.4807,-10.6799,-4.6769,-0.2648,-0.7228,-0.1088
7431.0,-0.4807,-10.6799,-4.6769,-0.2648,-0.7228,-0.1088
7436.0,-0.4807,-10.6799,-4.6769,-0.2648,-0.7228,-0.1088
7441.0,-0.4807,-10.6799,-4.6769,-0.2648,-0.7228,-0.1088
7446.0,-0.4807,-10.6799,-4.6769,-0.2648,-0.7228,-0.1088
7452.0,0.6448,-15.6994,-6.8948,-0.4756,-0.0691,-0.0832
7457.0,0.6448,-15.6994,-6.8948,-0.4756,-0.0691,-0.0832
7461.0,0.6448,-15.6994,-6.8948,-0.4756,-0.0691,-0.0832
7467.0,0.6448,-15.6994,-6.8948,-0.4756,-0.0691,-0.0832
7471.0,0.6448,-15.6994,-6.8948,-0.4756,-0.0691,-0.0832
7476.0,0.6448,-15.6994,-6.8948,-0.4756,-0.0691,-0.0832
7481.0,2.0289,-14.7508,-2.715,-0.5177,-0.6299,-0.3849
7486.0,2.0289,-14.7508,-2.715,-0.5177,-0.6299,-0.3849
7491.0,2.0289,-14.7508,-2.715,-0.5177,-0.6299,-0.3849
7496.0,2.0289,-14.7508,-2.715,-0.5177,-0.6299,-0.3849
7501.0,2.0289,-14.7508,-2.715,-0.5177,-0.6299,-0.3849
7506.0,1.1285,-9.9125,2.7492,-0.5177,-0.6299,-0.3849
7511.0,1.1285,-9.9125,2.7492,-0.5647,-2.2072,0.276
7516.0,1.1285,-9.9125,2.7492,-0.5647,-2.2072,0.276
7521.0,1.1285,-9.9125,2.7492,-0.5647,-2.2072,0.276
7526.0,1.1285,-9.9125,2.7492,-0.5647,-2.2072,0.276
7532.0,-0.0017,-6.938,3.479,-0.5647,-2.2072,0.276
7536.0,-0.0017,-6.938,3.479,-0.5647,-2.2072,0.276
7541.0,-0.0017,-6.938,3.479,-0.8787,-2.0606,0.3353
7546.0,-0.0017,-6.938,3.479,-0.8787,-2.0606,0.3353
7551.0,-0.0017,-6.938,3.479,-0.8787,-2.0606,0.3353
7556.0,-0.0017,-6.938,3.479,-0.8787,-2.0606,0.3353
7561.0,-2.4874,-10.2938,4.6827,-0.8787,-2.0606,0.3353
7566.0,-2.4874,-10.2938,4.6827,-0.8787,-2.0606,0.3353
7571.0,-2.4874,-10.2938,4.6827,-0.1237,0.0805,-0.2267
7576.0,-2.4874,-10.2938,4.6827,-0.1237,0.0805,-0.2267
7581.0,-2.4874,-10.2938,4.6827,-0.1237,0.0805,-0.2267
7586.0,-4.2354,-14.3503,3.0951,-0.1237,0.0805,-0.2267
7591.0,-4.2354,-14.3503,3.0951,-0.1237,0.0805,-0.2267
7597.0,-4.2354,-14.3503,3.0951,-0.1237,0.0805,-0.2267
7602.0,-4.2354,-14.3503,3.0951,1.0253,1.2283,-0.3403
7607.0,-4.2354,-14.3503,3.0951,1.0253,1.2283,-0.3403
7611.0,-6.6492,-21.4434,-24.0455,1.0253,1.2283,-0.3403
7616.0,-6.6492,-21.4434,-24.0455,1.0253,1.2283,-0.3403
7621.0,-6.6492,-21.4434,-24.0455,1.0253,1.2283,-0.3403
7626.0,-6.6492,-21.4434,-24.0455,1.0253,1.2283,-0.3403
7632.0,-6.6492,-21.4434,-24.0455,1.0253,1.2283,-0.3403
7637.0,1.6122,-11.9955,-1.1511,0.1274,-1.6812,0.218
7641.0,1.6122,-11.9955,-1.1511,0.1274,-1.6812,0.218
7646.0,1.6122,-11.9955,-1.1511,0.1274,-1.6812,0.218
7651.0,1.6122,-11.9955,-1.1511,0.1274,-1.6812,0.218
7656.0,1.6122,-11.9955,-1.1511,0.1274,-1.6812,0.218
7661.0,1.6122,-11.9955,-1.1511,0.1274,-1.6812,0.218
7666.0,0.4868,-8.9686,1.716,-0.1243,-0.454,-0.3147
7671.0,0.4868,-8.9686,1.716,-0.1243,-0.454,-0.3147
7679.0,0.4868,-8.9686,1.716,-0.1243,-0.454,-0.3147
7681.0,0.4868,-8.9686,1.716,-0.1243,-0.454,-0.3147
7686.0,0.4868,-8.9686,1.716,-0.1243,-0.454,-0.3147
7691.0,1.071,-6.1371,1.1758,-0.1243,-0.454,-0.3147
7696.0,1.071,-6.1371,1.1758,-0.1695,-0.4784,0.2327
7702.0,1.071,-6.1371,1.1758,-0.1695,-0.4784,0.2327
7706.0,1.071,-6.1371,1.1758,-0.1695,-0.4784,0.2327
7711.0,1.071,-6.1371,1.1758,-0.1695,-0.4784,0.2327
7716.0,1.1093,-7.1191,0.9862,-0.1695,-0.4784,0.2327
7722.0,1.1093,-7.1191,0.9862,-0.1695,-0.4784,0.2327
7727.0,1.1093,-7.1191,0.9862,-0.0553,-0.0997,1.2424
7731.0,1.1093,-7.1191,0.9862,-0.0553,-0.0997,1.2424
7736.0,1.1093,-7.1191,0.9862,-0.0553,-0.0997,1.2424
7741.0,1.1093,-7.1191,0.9862,-0.0553,-0.0997,1.2424
7746.0,-0.0736,-11.4092,1.2374,-0.0553,-0.0997,1.2424
7752.0,-0.0736,-11.4092,1.2374,-0.0553,-0.0997,1.2424
7756.0,-0.0736,-11.4092,1.2374,-0.0553,-0.0997,1.2424
7761.0,-0.0736,-11.4092,1.2374,-0.3467,0.8979,1.8765
7766.0,-0.0736,-11.4092,1.2374,-0.3467,0.8979,1.8765
7771.0,-3.4308,-12.7725,-3.2647,-0.3467,0.8979,1.8765
7776.0,-3.4308,-12.7725,-3.2647,-0.3467,0.8979,1.8765
7781.0,-3.4308,-12.7725,-3.2647,-0.3467,0.8979,1.8765
7786.0,-3.4308,-12.7725,-3.2647,-0.3467,0.8979,1.8765
7791.0,-3.4308,-12.7725,-3.2647,0.0125,2.3114,0.7305
7796.0,-2.5736,-8.2917,-7.3403,0.0125,2.3114,0.7305
7801.0,-2.5736,-8.2917,-7.3403,0.0125,2.3114,0.7305
7806.0,-2.5736,-8.2917,-7.3403,0.0125,2.3114,0.7305
7811.0,-2.5736,-8.2917,-7.3403,0.0125,2.3114,0.7305
7816.0,-2.5736,-8.2917,-7.3403,0.0125,2.3114,0.7305
7821.0,-0.8207,-7.6387,-1.4733,0.0449,-0.8095,0.7342
7826.0,-0.8207,-7.6387,-1.4733,0.0449,-0.8095,0.7342
7831.0,-0.8207,-7.6387,-1.4733,0.0449,-0.8095,0.7342
7836.0,-0.8207,-7.6387,-1.4733,0.0449,-0.8095,0.7342
7841.0,-0.8207,-7.6387,-1.4733,0.0449,-0.8095,0.7342
7846.0,-0.8207,-7.6387,-1.4733,0.0449,-0.8095,0.7342
7851.0,0.0797,-5.0026,-0.2601,0.0449,-0.8095,0.7342
7856.0,0.0797,-5.0026,-0.2601,0.1958,-1.3868,0.4654
7861.0,0.0797,-5.0026,-0.2601,0.1958,-1.3868,0.4654
7867.0,0.0797,-5.0026,-0.2601,0.1958,-1.3868,0.4654
7871.0,0.0797,-5.0026,-0.2601,0.1958,-1.3868,0.4654
7876.0,0.2473,-6.1514,-6.8,0.1958,-1.3868,0.4654
7881.0,0.2473,-6.1514,-6.8,0.1958,-1.3868,0.4654
7886.0,0.2473,-6.1514,-6.8,-0.241,-0.3074,-0.5853
7891.0,0.2473,-6.1514,-6.8,-0.241,-0.3074,-0.5853
7896.0,0.2473,-6.1514,-6.8,-0.241,-0.3074,-0.5853
7901.0,-1.156,-7.1239,-0.8904,-0.241,-0.3074,-0.5853
7906.0,-1.156,-7.1239,-0.8904,-0.241,-0.3074,-0.5853
7911.0,-1.156,-7.1239,-0.8904,-0.241,-0.3074,-0.5853
7916.0,-1.156,-7.1239,-0.8904,-0.1677,0.7464,-1.5651
7921.0,-1.156,-7.1239,-0.8904,-0.1677,0.7464,-1.5651
7927.0,-1.156,-7.1239,-0.8904,-0.1677,0.7464,-1.5651
7932.0,-2.0803,-6.2802,-2.151,-0.1677,0.7464,-1.5651
7937.0,-2.0803,-6.2802,-2.151,-0.1677,0.7464,-1.5651
7941.0,-2.0803,-6.2802,-2.151,-0.1677,0.7464,-1.5651
7946.0,-2.0803,-6.2802,-2.151,0.1329,-0.388,-0.9359
7951.0,-2.0803,-6.2802,-2.151,0.1329,-0.388,-0.9359
7956.0,-2.4778,-6.9284,-3.8855,0.1329,-0.388,-0.9359
7961.0,-2.4778,-6.9284,-3.8855,0.1329,-0.388,-0.9359
7966.0,-2.4778,-6.9284,-3.8855,0.1329,-0.388,-0.9359
7972.0,-2.4778,-6.9284,-3.8855,0.1329,-0.388,-0.9359
7976.0,-2.4778,-6.9284,-3.8855,0.1329,-0.388,-0.9359
7981.0,-2.904,-9.9887,1.6308,0.1286,-0.5462,-0.5523
7986.0,-2.904,-9.9887,1.6308,0.1286,-0.5462,-0.5523
7991.0,-2.904,-9.9887,1.6308,0.1286,-0.5462,-0.5523
7996.0,-2.904,-9.9887,1.6308,0.1286,-0.5462,-0.5523
8001.0,-2.904,-9.9887,1.6308,0.1286,-0.5462,-0.5523
8007.0,-2.904,-9.9887,1.6308,0.1286,-0.5462,-0.5523
8011.0,-2.7651,-10.4225,1.4459,0.2941,1.3456,0.0958
8016.0,-2.7651,-10.4225,1.4459,0.2941,1.3456,0.0958
8021.0,-2.7651,-10.4225,1.4459,0.2941,1.3456,0.0958
8026.0,-2.7651,-10.4225,1.4459,0.2941,1.3456,0.0958
8031.0,-2.7651,-10.4225,1.4459,0.2941,1.3456,0.0958
8036.0,-0.5477,-7.8961,-5.0276,0.2941,1.3456,0.0958
8041.0,-0.5477,-7.8961,-5.0276,0.1359,2.1862,-0.4711
8046.0,-0.5477,-7.8961,-5.0276,0.1359,2.1862,-0.4711
8051.0,-0.5477,-7.8961,-5.0276,0.1359,2.1862,-0.4711
8057.0,-0.5477,-7.8961,-5.0276,0.1359,2.1862,-0.4711
8061.0,2.0193,-10.5846,-5.9375,0.1359,2.1862,-0.4711
8066.0,2.0193,-10.5846,-5.9375,0.1359,2.1862,-0.4711
8071.0,2.0193,-10.5846,-5.9375,0.3186,1.568,-1.9842
8078.0,2.0193,-10.5846,-5.9375,0.3186,1.568,-1.9842
8081.0,2.0193,-10.5846,-5.9375,0.3186,1.568,-1.9842
8086.0,2.0193,-10.5846,-5.9375,0.3186,1.568,-1.9842
8091.0,1.3871,-11.9812,-4.0466,0.3186,1.568,-1.9842
8096.0,1.3871,-11.9812,-4.0466,0.3186,1.568,-1.9842
8101.0,1.3871,-11.9812,-4.0466,0.4817,1.623,-3.3825
8106.0,1.3871,-11.9812,-4.0466,0.4817,1.623,-3.3825
8111.0,1.3871,-11.9812,-4.0466,0.4817,1.623,-3.3825
8117.0,-1.0793,-12.5819,-0.0137,0.4817,1.623,-3.3825
8121.0,-1.0793,-12.5819,-0.0137,0.4817,1.623,-3.3825
8126.0,-1.0793,-12.5819,-0.0137,0.4817,1.623,-3.3825
8134.0,-1.0793,-12.5819,-0.0137,0.85,1.7158,-3.8168
8136.0,-1.0793,-12.5819,-0.0137,0.85,1.7158,-3.8168
8141.0,-1.0793,-12.5819,-0.0137,0.85,1.7158,-3.8168
8146.0,2.4551,-11.2138,-1.4402,0.85,1.7158,-3.8168
8151.0,2.4551,-11.2138,-1.4402,0.85,1.7158,-3.8168
8156.0,2.4551,-11.2138,-1.4402,0.85,1.7158,-3.8168
8161.0,2.4551,-11.2138,-1.4402,0.85,1.7158,-3.8168
8166.0,2.4551,-11.2138,-1.4402,0.2886,3.4372,-2.9274
8171.0,3.1687,-14.3456,-5.511,0.2886,3.4372,-2.9274
8176.0,3.1687,-14.3456,-5.511,0.2886,3.4372,-2.9274
8181.0,3.1687,-14.3456,-5.511,0.2886,3.4372,-2.9274
8186.0,3.1687,-14.3456,-5.511,0.2886,3.4372,-2.9274
8191.0,3.1687,-14.3456,-5.511,0.2886,3.4372,-2.9274
8196.0,3.1687,-14.3456,-5.511,0.2886,3.4372,-2.9274
8201.0,2.163,-17.9064,-10.5297,-0.6216,0.3859,-1.5719
8206.0,2.163,-17.9064,-10.5297,-0.6216,0.3859,-1.5719
8212.0,2.163,-17.9064,-10.5297,-0.6216,0.3859,-1.5719
8216.0,2.163,-17.9064,-10.5297,-0.6216,0.3859,-1.5719
8222.0,2.163,-17.9064,-10.5297,-0.6216,0.3859,-1.5719
8226.0,1.0519,-15.9711,-4.1746,-0.6216,0.3859,-1.5719
8231.0,1.0519,-15.9711,-4.1746,-0.536,-3.6152,-1.6348
8236.0,1.0519,-15.9711,-4.1746,-0.536,-3.6152,-1.6348
8241.0,1.0519,-15.9711,-4.1746,-0.536,-3.6152,-1.6348
8246.0,1.0519,-15.9711,-4.1746,-0.536,-3.6152,-1.6348
8251.0,0.6065,-10.7752,0.2185,-0.536,-3.6152,-1.6348
8256.0,0.6065,-10.7752,0.2185,-0.536,-3.6152,-1.6348
8261.0,0.6065,-10.7752,0.2185,-0.0962,-1.3581,-0.8199
8266.0,0.6065,-10.7752,0.2185,-0.0962,-1.3581,-0.8199
8271.0,0.6065,-10.7752,0.2185,-0.0962,-1.3581,-0.8199
8276.0,0.6065,-10.7752,0.2185,-0.0962,-1.3581,-0.8199
8281.0,0.1276,-6.4041,-1.189,-0.0962,-1.3581,-0.8199
8286.0,0.1276,-6.4041,-1.189,-0.0962,-1.3581,-0.8199
8291.0,0.1276,-6.4041,-1.189,0.2972,0.6694,0.6144
8296.0,0.1276,-6.4041,-1.189,0.2972,0.6694,0.6144
8301.0,0.1276,-6.4041,-1.189,0.2972,0.6694,0.6144
8306.0,-1.2613,-5.7749,-3.3974,0.2972,0.6694,0.6144
8312.0,-1.2613,-5.7749,-3.3974,0.2972,0.6694,0.6144
8317.0,-1.2613,-5.7749,-3.3974,0.2972,0.6694,0.6144
8321.0,-1.2613,-5.7749,-3.3974,0.7242,0.6321,1.2772
8326.0,-1.2613,-5.7749,-3.3974,0.7242,0.6321,1.2772
8331.0,-1.2613,-5.7749,-3.3974,0.7242,0.6321,1.2772
8336.0,-0.7153,-4.7071,-2.3406,0.7242,0.6321,1.2772
8342.0,-0.7153,-4.7071,-2.3406,0.7242,0.6321,1.2772
8347.0,-0.7153,-4.7071,-2.3406,0.7242,0.6321,1.2772
8351.0,-0.7153,-4.7071,-2.3406,0.7242,0.6321,1.2772
8356.0,-0.7153,-4.7071,-2.3406,0.5684,0.6389,2.3169
8361.0,-0.4519,-3.7204,-2.1178,0.5684,0.6389,2.3169
8366.0,-0.4519,-3.7204,-2.1178,0.5684,0.6389,2.3169
8372.0,-0.4519,-3.7204,-2.1178,0.5684,0.6389,2.3169
8376.0,-0.4519,-3.7204,-2.1178,0.5684,0.6389,2.3169
8381.0,-0.4519,-3.7204,-2.1178,0.5684,0.6389,2.3169
8386.0,0.0653,-4.1875,-2.3027,0.5226,0.4776,3.1318
8391.0,0.0653,-4.1875,-2.3027,0.5226,0.4776,3.1318
8396.0,0.0653,-4.1875,-2.3027,0.5226,0.4776,3.1318
8401.0,0.0653,-4.1875,-2.3027,0.5226,0.4776,3.1318
8406.0,0.0653,-4.1875,-2.3027,0.5226,0.4776,3.1318
8412.0,0.0653,-4.1875,-2.3027,0.5226,0.4776,3.1318
8417.0,0.7693,-5.2839,-1.17,0.244,0.0036,3.1972
8422.0,0.7693,-5.2839,-1.17,0.244,0.0036,3.1972
8426.0,0.7693,-5.2839,-1.17,0.244,0.0036,3.1972
8431.0,0.7693,-5.2839,-1.17,0.244,0.0036,3.1972
8436.0,0.7693,-5.2839,-1.17,0.244,0.0036,3.1972
8441.0,1.459,-7.6768,-0.3881,0.244,0.0036,3.1972
8446.0,1.459,-7.6768,-0.3881,-0.3277,1.1141,2.5344
8451.0,1.459,-7.6768,-0.3881,-0.3277,1.1141,2.5344
8456.0,1.459,-7.6768,-0.3881,-0.3277,1.1141,2.5344
8461.0,1.459,-7.6768,-0.3881,-0.3277,1.1141,2.5344
8466.0,1.0375,-10.6656,-0.099,-0.3277,1.1141,2.5344
8471.0,1.0375,-10.6656,-0.099,-0.3277,1.1141,2.5344
8477.0,1.0375,-10.6656,-0.099,-0.2587,2.1001,1.5796
8481.0,1.0375,-10.6656,-0.099,-0.2587,2.1001,1.5796
8486.0,1.0375,-10.6656,-0.099,-0.2587,2.1001,1.5796
8491.0,1.0375,-10.6656,-0.099,-0.2587,2.1001,1.5796
8496.0,2.9341,-11.271,-3.6012,-0.2587,2.1001,1.5796
8502.0,2.9341,-11.271,-3.6012,-0.2587,2.1001,1.5796
8507.0,2.9341,-11.271,-3.6012,-0.2587,2.1001,1.5796
8511.0,2.9341,-11.271,-3.6012,0.0211,2.3334,1.1294
8516.0,2.9341,-11.271,-3.6012,0.0211,2.3334,1.1294
8521.0,6.502,-8.2298,-7.4351,0.0211,2.3334,1.1294
8526.0,6.502,-8.2298,-7.4351,0.0211,2.3334,1.1294
8531.0,6.502,-8.2298,-7.4351,0.0211,2.3334,1.1294
8536.0,6.502,-8.2298,-7.4351,0.0211,2.3334,1.1294
8541.0,6.502,-8.2298,-7.4351,-0.6332,1.5081,0.6725
8546.0,4.6965,-7.4861,-7.7952,-0.6332,1.5081,0.6725
8551.0,4.6965,-7.4861,-7.7952,-0.6332,1.5081,0.6725
8556.0,4.6965,-7.4861,-7.7952,-0.6332,1.5081,0.6725
8561.0,4.6965,-7.4861,-7.7952,-0.6332,1.5081,0.6725
8566.0,4.6965,-7.4861,-7.7952,-0.6332,1.5081,0.6725
8571.0,4.6965,-7.4861,-7.7952,-0.2355,-1.1534,-0.2438
8576.0,-0.313,-7.9533,-5.8807,-0.2355,-1.1534,-0.2438
8581.0,-0.313,-7.9533,-5.8807,-0.2355,-1.1534,-0.2438
8586.0,-0.313,-7.9533,-5.8807,-0.2355,-1.1534,-0.2438
8591.0,-0.313,-7.9533,-5.8807,-0.2355,-1.1534,-0.2438
8596.0,-0.313,-7.9533,-5.8807,-0.2355,-1.1534,-0.2438
8601.0,-0.313,-7.9533,-5.8807,0.4896,-1.9488,-0.3037
8606.0,-1.7977,-6.4279,-8.6246,0.4896,-1.9488,-0.3037
8612.0,-1.7977,-6.4279,-8.6246,0.4896,-1.9488,-0.3037
8616.0,-1.7977,-6.4279,-8.6246,0.4896,-1.9488,-0.3037
8621.0,-1.7977,-6.4279,-8.6246,0.4896,-1.9488,-0.3037
8626.0,-1.7977,-6.4279,-8.6246,0.4896,-1.9488,-0.3037
8631.0,0.9274,-12.2434,-4.9565,0.4896,-1.9488,-0.3037
8637.0,0.9274,-12.2434,-4.9565,0.0687,-3.9109,-0.4197
8642.0,0.9274,-12.2434,-4.9565,0.0687,-3.9109,-0.4197
8647.0,0.9274,-12.2434,-4.9565,0.0687,-3.9109,-0.4197
8651.0,0.9274,-12.2434,-4.9565,0.0687,-3.9109,-0.4197
8657.0,5.7645,-16.443,8.147,0.0687,-3.9109,-0.4197
8661.0,5.7645,-16.443,8.147,0.0687,-3.9109,-0.4197
8666.0,5.7645,-16.443,8.147,-1.2391,-7.1302,1.8631
8671.0,5.7645,-16.443,8.147,-1.2391,-7.1302,1.8631
8676.0,5.7645,-16.443,8.147,-1.2391,-7.1302,1.8631
8681.0,5.7645,-16.443,8.147,-1.2391,-7.1302,1.8631
8686.0,4.3421,-15.5659,5.8201,-1.2391,-7.1302,1.8631
8691.0,4.3421,-15.5659,5.8201,-1.2391,-7.1302,1.8631
8697.0,4.3421,-15.5659,5.8201,-0.4859,-3.1516,0.4605
8701.0,4.3421,-15.5659,5.8201,-0.4859,-3.1516,0.4605
8706.0,4.3421,-15.5659,5.8201,-0.4859,-3.1516,0.4605
8711.0,2.7042,-7.2383,2.588,-0.4859,-3.1516,0.4605
8716.0,2.7042,-7.2383,2.588,-0.4859,-3.1516,0.4605
8721.0,2.7042,-7.2383,2.588,-0.4859,-3.1516,0.4605
8726.0,2.7042,-7.2383,2.588,-0.274,1.7726,-1.5065
8731.0,2.7042,-7.2383,2.588,-0.274,1.7726,-1.5065
8736.0,2.7042,-7.2383,2.588,-0.274,1.7726,-1.5065
8741.0,1.2339,-8.3108,2.4601,-0.274,1.7726,-1.5065
8746.0,1.2339,-8.3108,2.4601,-0.274,1.7726,-1.5065
8751.0,1.2339,-8.3108,2.4601,-0.274,1.7726,-1.5065
8757.0,1.2339,-8.3108,2.4601,-0.8573,2.0628,-1.4259
8762.0,1.2339,-8.3108,2.4601,-0.8573,2.0628,-1.4259
8766.0,0.7023,-16.9387,3.3273,-0.8573,2.0628,-1.4259
8771.0,0.7023,-16.9387,3.3273,-0.8573,2.0628,-1.4259
8777.0,0.7023,-16.9387,3.3273,-0.8573,2.0628,-1.4259
8781.0,0.7023,-16.9387,3.3273,-0.8573,2.0628,-1.4259
8786.0,0.7023,-16.9387,3.3273,-1.3674,4.7922,2.8105
8791.0,0.7023,-16.9387,3.3273,-1.3674,4.7922,2.8105
8796.0,-9.7718,-21.9105,-42.1439,-1.3674,4.7922,2.8105
8801.0,-9.7718,-21.9105,-42.1439,-1.3674,4.7922,2.8105
8807.0,-9.7718,-21.9105,-42.1439,-1.3674,4.7922,2.8105
8812.0,-9.7718,-21.9105,-42.1439,-1.3674,4.7922,2.8105
8816.0,-9.7718,-21.9105,-42.1439,0.3039,-3.8675,-0.7508
8821.0,0.6735,-10.7752,3.4269,0.3039,-3.8675,-0.7508
8826.0,0.6735,-10.7752,3.4269,0.3039,-3.8675,-0.7508
8831.0,0.6735,-10.7752,3.4269,0.3039,-3.8675,-0.7508
8837.0,0.6735,-10.7752,3.4269,0.3039,-3.8675,-0.7508
8841.0,0.6735,-10.7752,3.4269,0.3039,-3.8675,-0.7508
8846.0,-0.5046,-7.1334,3.3131,0.1316,-1.3019,0.813
8851.0,-0.5046,-7.1334,3.3131,0.1316,-1.3019,0.813
8856.0,-0.5046,-7.1334,3.3131,0.1316,-1.3019,0.813
8861.0,-0.5046,-7.1334,3.3131,0.1316,-1.3019,0.813
8866.0,-0.5046,-7.1334,3.3131,0.1316,-1.3019,0.813
8871.0,-0.5046,-7.1334,3.3131,0.1316,-1.3019,0.813
8876.0,-0.4519,-6.9141,2.4174,0.1316,-1.3019,0.813
8881.0,-0.4519,-6.9141,2.4174,0.0675,0.6853,0.8936
8886.0,-0.4519,-6.9141,2.4174,0.0675,0.6853,0.8936
8891.0,-0.4519,-6.9141,2.4174,0.0675,0.6853,0.8936
8896.0,-0.4519,-6.9141,2.4174,0.0675,0.6853,0.8936
8901.0,-0.4519,-6.9141,2.4174,0.0675,0.6853,0.8936
8906.0,-0.4711,-10.7085,2.0857,0.0675,0.6853,0.8936
8911.0,-0.4711,-10.7085,2.0857,-0.0754,2.0072,0.6022
8916.0,-0.4711,-10.7085,2.0857,-0.0754,2.0072,0.6022
8921.0,-0.4711,-10.7085,2.0857,-0.0754,2.0072,0.6022
8926.0,-0.4711,-10.7085,2.0857,-0.0754,2.0072,0.6022
8931.0,-0.3657,-10.6942,0.8725,-0.0754,2.0072,0.6022
8937.0,-0.3657,-10.6942,0.8725,-0.0754,2.0072,0.6022
8941.0,-0.3657,-10.6942,0.8725,0.1219,2.2186,1.9138
8946.0,-0.3657,-10.6942,0.8725,0.1219,2.2186,1.9138
8952.0,-0.3657,-10.6942,0.8725,0.1219,2.2186,1.9138
8956.0,0.4197,-7.9914,-0.625,0.1219,2.2186,1.9138
8961.0,0.4197,-7.9914,-0.625,0.1219,2.2186,1.9138
8966.0,0.4197,-7.9914,-0.625,0.1219,2.2186,1.9138
8971.0,0.4197,-7.9914,-0.625,0.219,0.7348,2.6077
8977.0,0.4197,-7.9914,-0.625,0.219,0.7348,2.6077
8982.0,0.4197,-7.9914,-0.625,0.219,0.7348,2.6077
8986.0,0.8316,-5.9798,-0.6013,0.219,0.7348,2.6077
8991.0,0.8316,-5.9798,-0.6013,0.219,0.7348,2.6077
8996.0,0.8316,-5.9798,-0.6013,0.219,0.7348,2.6077
9001.0,0.8316,-5.9798,-0.6013,0.0535,-3.005,1.1801
9006.0,0.8316,-5.9798,-0.6013,0.0535,-3.005,1.1801
9011.0,5.7741,-4.0445,-16.1312,0.0535,-3.005,1.1801
9016.0,5.7741,-4.0445,-16.1312,0.0535,-3.005,1.1801
9022.0,5.7741,-4.0445,-16.1312,0.0535,-3.005,1.1801
9026.0,5.7741,-4.0445,-16.1312,0.0535,-3.005,1.1801
9031.0,5.7741,-4.0445,-16.1312,-0.0363,-3.8327,-0.8687
9036.0,1.1429,-5.527,1.8251,-0.0363,-3.8327,-0.8687
9041.0,1.1429,-5.527,1.8251,-0.0363,-3.8327,-0.8687
9047.0,1.1429,-5.527,1.8251,-0.0363,-3.8327,-0.8687
9051.0,1.1429,-5.527,1.8251,-0.0363,-3.8327,-0.8687
9056.0,1.1429,-5.527,1.8251,-0.0363,-3.8327,-0.8687
9061.0,1.1429,-5.527,1.8251,-0.0363,-3.8327,-0.8687
9066.0,-0.4902,-7.8437,3.0288,0.1701,-1.3966,-1.5016
9071.0,-0.4902,-7.8437,3.0288,0.1701,-1.3966,-1.5016
9076.0,-0.4902,-7.8437,3.0288,0.1701,-1.3966,-1.5016
9081.0,-0.4902,-7.8437,3.0288,0.1701,-1.3966,-1.5016
9086.0,-0.4902,-7.8437,3.0288,0.1701,-1.3966,-1.5016
9091.0,-0.4902,-7.8437,3.0288,0.1701,-1.3966,-1.5016
9096.0,-1.4002,-7.7102,2.0004,-0.186,0.6932,-0.9695
9101.0,-1.4002,-7.7102,2.0004,-0.186,0.6932,-0.9695
9106.0,-1.4002,-7.7102,2.0004,-0.186,0.6932,-0.9695
9112.0,-1.4002,-7.7102,2.0004,-0.186,0.6932,-0.9695
9116.0,-1.4002,-7.7102,2.0004,-0.186,0.6932,-0.9695
9121.0,-4.7383,-7.2192,-7.6673,-0.186,0.6932,-0.9695
9127.0,-4.7383,-7.2192,-7.6673,0.4279,1.4092,-2.7386
9131.0,-4.7383,-7.2192,-7.6673,0.4279,1.4092,-2.7386
9136.0,-4.7383,-7.2192,-7.6673,0.4279,1.4092,-2.7386
9141.0,-4.7383,-7.2192,-7.6673,0.4279,1.4092,-2.7386
9146.0,-0.9069,-7.9628,-1.0184,0.4279,1.4092,-2.7386
9152.0,-0.9069,-7.9628,-1.0184,0.4279,1.4092,-2.7386
9157.0,-0.9069,-7.9628,-1.0184,0.4279,1.4092,-2.7386
9162.0,-0.9069,-7.9628,-1.0184,-0.0455,0.7995,-2.0141
9166.0,-0.9069,-7.9628,-1.0184,-0.0455,0.7995,-2.0141
9171.0,-0.9069,-7.9628,-1.0184,-0.0455,0.7995,-2.0141
9176.0,2.1151,-8.9305,-3.7812,-0.0455,0.7995,-2.0141
9184.0,2.1151,-8.9305,-3.7812,-0.0455,0.7995,-2.0141
9187.0,2.1151,-8.9305,-3.7812,-0.0455,0.7995,-2.0141
9191.0,2.1151,-8.9305,-3.7812,-0.3424,1.1776,-3.0911
9196.0,2.1151,-8.9305,-3.7812,-0.3424,1.1776,-3.0911
9201.0,1.2003,-12.2434,-2.6818,-0.3424,1.1776,-3.0911
9206.0,1.2003,-12.2434,-2.6818,-0.3424,1.1776,-3.0911
9211.0,1.2003,-12.2434,-2.6818,-0.3424,1.1776,-3.0911
9216.0,1.2003,-12.2434,-2.6818,-0.3424,1.1776,-3.0911
9221.0,1.2003,-12.2434,-2.6818,0.2312,1.458,-3.9164
9226.0,1.2003,-12.2434,-2.6818,0.2312,1.458,-3.9164
9232.0,0.9465,-15.9758,-2.8524,0.2312,1.458,-3.9164
9236.0,0.9465,-15.9758,-2.8524,0.2312,1.458,-3.9164
9241.0,0.9465,-15.9758,-2.8524,0.2312,1.458,-3.9164
9246.0,0.9465,-15.9758,-2.8524,0.2312,1.458,-3.9164
9251.0,0.9465,-15.9758,-2.8524,0.7706,2.2259,-3.9127
9256.0,2.7904,-15.952,-5.5726,0.7706,2.2259,-3.9127
9261.0,2.7904,-15.952,-5.5726,0.7706,2.2259,-3.9127
9267.0,2.7904,-15.952,-5.5726,0.7706,2.2259,-3.9127
9271.0,2.7904,-15.952,-5.5726,0.7706,2.2259,-3.9127
9276.0,2.7904,-15.952,-5.5726,0.7706,2.2259,-3.9127
9281.0,2.7904,-15.952,-5.5726,0.1878,1.3682,-2.6928
9286.0,1.3967,-14.3932,-5.0466,0.1878,1.3682,-2.6928
9291.0,1.3967,-14.3932,-5.0466,0.1878,1.3682,-2.6928
9296.0,1.3967,-14.3932,-5.0466,0.1878,1.3682,-2.6928
9302.0,1.3967,-14.3932,-5.0466,0.1878,1.3682,-2.6928
9306.0,1.3967,-14.3932,-5.0466,0.1878,1.3682,-2.6928
9312.0,0.8364,-16.9483,-7.6057,0.2648,-1.6965,-1.5291
9316.0,0.8364,-16.9483,-7.6057,0.2648,-1.6965,-1.5291
9321.0,0.8364,-16.9483,-7.6057,0.2648,-1.6965,-1.5291
9326.0,0.8364,-16.9483,-7.6057,0.2648,-1.6965,-1.5291
9331.0,0.8364,-16.9483,-7.6057,0.2648,-1.6965,-1.5291
9336.0,1.2387,-15.2846,-5.4778,0.2648,-1.6965,-1.5291
9342.0,1.2387,-15.2846,-5.4778,0.486,-2.4051,-0.9249
9346.0,1.2387,-15.2846,-5.4778,0.486,-2.4051,-0.9249
9351.0,1.2387,-15.2846,-5.4778,0.486,-2.4051,-0.9249
9356.0,1.2387,-15.2846,-5.4778,0.486,-2.4051,-0.9249
9361.0,1.2387,-15.2846,-5.4778,0.486,-2.4051,-0.9249
9366.0,1.1668,-9.6837,-3.1699,0.486,-2.4051,-0.9249
9371.0,1.1668,-9.6837,-3.1699,0.7211,-0.4393,-0.0661
9377.0,1.1668,-9.6837,-3.1699,0.7211,-0.4393,-0.0661
9381.0,1.1668,-9.6837,-3.1699,0.7211,-0.4393,-0.0661
9386.0,1.1668,-9.6837,-3.1699,0.7211,-0.4393,-0.0661
9391.0,1.55,-6.8617,-3.0846,0.7211,-0.4393,-0.0661
9396.0,1.55,-6.8617,-3.0846,0.7211,-0.4393,-0.0661
9401.0,1.55,-6.8617,-3.0846,0.7211,-0.4393,-0.0661
9406.0,1.55,-6.8617,-3.0846,0.6118,0.1398,0.7159
9411.0,1.55,-6.8617,-3.0846,0.6118,0.1398,0.7159
9416.0,0.7933,-5.4412,-2.5633,0.6118,0.1398,0.7159
9421.0,0.7933,-5.4412,-2.5633,0.6118,0.1398,0.7159
9426.0,0.7933,-5.4412,-2.5633,0.6118,0.1398,0.7159
9432.0,0.7933,-5.4412,-2.5633,0.6118,0.1398,0.7159
9436.0,0.7933,-5.4412,-2.5633,0.3888,0.1868,1.5582
9442.0,-0.1119,-4.7214,-1.5444,0.3888,0.1868,1.5582
9446.0,-0.1119,-4.7214,-1.5444,0.3888,0.1868,1.5582
9452.0,-0.1119,-4.7214,-1.5444,0.3888,0.1868,1.5582
9456.0,-0.1119,-4.7214,-1.5444,0.3888,0.1868,1.5582
9461.0,-0.1119,-4.7214,-1.5444,0.3888,0.1868,1.5582
9466.0,-0.1119,-4.7214,-1.5444,0.3888,0.1868,1.5582
9471.0,-1.2853,-4.9502,-2.4496,0.1567,0.6633,2.4666
9476.0,-1.2853,-4.9502,-2.4496,0.1567,0.6633,2.4666
9481.0,-1.2853,-4.9502,-2.4496,0.1567,0.6633,2.4666
9486.0,-1.2853,-4.9502,-2.4496,0.1567,0.6633,2.4666
9492.0,-1.2853,-4.9502,-2.4496,0.1567,0.6633,2.4666
9496.0,-1.472,-5.5604,-3.8334,0.1567,0.6633,2.4666
9501.0,-1.472,-5.5604,-3.8334,0.7248,0.4477,3.323
9506.0,-1.472,-5.5604,-3.8334,0.7248,0.4477,3.323
9512.0,-1.472,-5.5604,-3.8334,0.7248,0.4477,3.323
9516.0,-1.472,-5.5604,-3.8334,0.7248,0.4477,3.323
9521.0,-1.472,-5.5604,-3.8334,0.7248,0.4477,3.323
9527.0,1.6601,-5.5699,-3.0988,0.7248,0.4477,3.323
9531.0,1.6601,-5.5699,-3.0988,0.7248,0.4477,3.323
9536.0,1.6601,-5.5699,-3.0988,0.1347,0.152,3.1288
9541.0,1.6601,-5.5699,-3.0988,0.1347,0.152,3.1288
9546.0,1.6601,-5.5699,-3.0988,0.1347,0.152,3.1288
9551.0,1.6601,-5.5699,-3.0988,0.1347,0.152,3.1288
9556.0,2.2252,-7.8818,-0.3786,0.1347,0.152,3.1288
9561.0,2.2252,-7.8818,-0.3786,0.1347,0.152,3.1288
9566.0,2.2252,-7.8818,-0.3786,-0.0675,1.2888,2.3108
9571.0,2.2252,-7.8818,-0.3786,-0.0675,1.2888,2.3108
9576.0,2.2252,-7.8818,-0.3786,-0.0675,1.2888,2.3108
9582.0,0.9896,-7.1858,-0.3075,-0.0675,1.2888,2.3108
9586.0,0.9896,-7.1858,-0.3075,-0.0675,1.2888,2.3108
9591.0,0.9896,-7.1858,-0.3075,-0.0675,1.2888,2.3108
9596.0,0.9896,-7.1858,-0.3075,0.0095,2.0573,0.9675
9601.0,0.9896,-7.1858,-0.3075,0.0095,2.0573,0.9675
9607.0,0.2617,-3.6393,-2.8998,0.0095,2.0573,0.9675
9611.0,0.2617,-3.6393,-2.8998,0.0095,2.0573,0.9675
9617.0,0.2617,-3.6393,-2.8998,0.0095,2.0573,0.9675
9621.0,0.2617,-3.6393,-2.8998,0.0095,2.0573,0.9675
9626.0,0.2617,-3.6393,-2.8998,0.0095,2.0573,0.9675
9632.0,0.2617,-3.6393,-2.8998,0.0327,3.0035,0.5955
9636.0,-0.2747,-9.2308,-3.6154,0.0327,3.0035,0.5955
9641.0,-0.2747,-9.2308,-3.6154,0.0327,3.0035,0.5955
9646.0,-0.2747,-9.2308,-3.6154,0.0327,3.0035,0.5955
9651.0,-0.2747,-9.2308,-3.6154,0.0327,3.0035,0.5955
9656.0,-0.2747,-9.2308,-3.6154,0.0327,3.0035,0.5955
9661.0,3.2501,-9.8124,-3.6391,0.2929,3.0152,0.0463
9666.0,3.2501,-9.8124,-3.6391,0.2929,3.0152,0.0463
9671.0,3.2501,-9.8124,-3.6391,0.2929,3.0152,0.0463
9676.0,3.2501,-9.8124,-3.6391,0.2929,3.0152,0.0463
9681.0,3.2501,-9.8124,-3.6391,0.2929,3.0152,0.0463
9686.0,3.2501,-9.8124,-3.6391,0.2929,3.0152,0.0463
9691.0,5.3813,-6.1371,-9.634,-0.3662,0.5454,-0.5603
9696.0,5.3813,-6.1371,-9.634,-0.3662,0.5454,-0.5603
9701.0,5.3813,-6.1371,-9.634,-0.3662,0.5454,-0.5603
9706.0,5.3813,-6.1371,-9.634,-0.3662,0.5454,-0.5603
9711.0,5.3813,-6.1371,-9.634,-0.3662,0.5454,-0.5603
9717.0,2.7425,-1.4466,-15.0792,-0.3662,0.5454,-0.5603
9721.0,2.7425,-1.4466,-15.0792,0.0724,-4.4515,-1.0355
9726.0,2.7425,-1.4466,-15.0792,0.0724,-4.4515,-1.0355
9731.0,2.7425,-1.4466,-15.0792,0.0724,-4.4515,-1.0355
9737.0,2.7425,-1.4466,-15.0792,0.0724,-4.4515,-1.0355
9742.0,3.3555,-10.8038,5.948,0.0724,-4.4515,-1.0355
9746.0,3.3555,-10.8038,5.948,0.0724,-4.4515,-1.0355
9751.0,3.3555,-10.8038,5.948,0.0242,-6.5065,0.8111
9756.0,3.3555,-10.8038,5.948,0.0242,-6.5065,0.8111
9762.0,3.3555,-10.8038,5.948,0.0242,-6.5065,0.8111
9766.0,3.3555,-10.8038,5.948,0.0242,-6.5065,0.8111
9771.0,3.2262,-19.1934,8.7393,0.0242,-6.5065,0.8111
9776.0,3.2262,-19.1934,8.7393,0.0242,-6.5065,0.8111
9782.0,3.2262,-19.1934,8.7393,0.0242,-6.5065,0.8111
9786.0,3.2262,-19.1934,8.7393,-0.1005,-3.2292,1.0286
9791.0,3.2262,-19.1934,8.7393,-0.1005,-3.2292,1.0286
9796.0,4.4091,-20.2707,6.9669,-0.1005,-3.2292,1.0286
9801.0,4.4091,-20.2707,6.9669,-0.1005,-3.2292,1.0286
9806.0,4.4091,-20.2707,6.9669,-0.1005,-3.2292,1.0286
9812.0,4.4091,-20.2707,6.9669,-0.1005,-3.2292,1.0286
9816.0,4.4091,-20.2707,6.9669,-0.6619,1.3994,0.1557
9821.0,1.1668,-7.6244,2.7302,-0.6619,1.3994,0.1557
9826.0,1.1668,-7.6244,2.7302,-0.6619,1.3994,0.1557
9831.0,1.1668,-7.6244,2.7302,-0.6619,1.3994,0.1557
9836.0,1.1668,-7.6244,2.7302,-0.6619,1.3994,0.1557
9842.0,1.1668,-7.6244,2.7302,-1.062,4.3939,-0.267
9846.0,1.1668,-7.6244,2.7302,-1.062,4.3939,-0.267
9851.0,0.7262,-12.2386,1.5028,-1.062,4.3939,-0.267
9856.0,0.7262,-12.2386,1.5028,-1.062,4.3939,-0.267
9861.0,0.7262,-12.2386,1.5028,-1.062,4.3939,-0.267
9866.0,0.7262,-12.2386,1.5028,-1.062,4.3939,-0.267
9871.0,0.7262,-12.2386,1.5028,-1.062,4.3939,-0.267
9876.0,-14.4987,-30.853,-30.4479,0.649,0.6437,-1.2438
9881.0,-14.4987,-30.853,-30.4479,0.649,0.6437,-1.2438
9886.0,-14.4987,-30.853,-30.4479,0.649,0.6437,-1.2438
9891.0,-14.4987,-30.853,-30.4479,0.649,0.6437,-1.2438
9896.0,-14.4987,-30.853,-30.4479,0.649,0.6437,-1.2438
9901.0,-14.4987,-6.6996,3.9387,0.649,0.6437,-1.2438
9906.0,1.5979,-6.6996,3.9387,0.6631,-2.1088,-0.3458
9911.0,1.5979,-6.6996,3.9387,0.6631,-2.1088,-0.3458
9917.0,1.5979,-6.6996,3.9387,0.6631,-2.1088,-0.3458
9921.0,1.5979,-6.6996,3.9387,0.6631,-2.1088,-0.3458
9926.0,1.5979,-6.6996,3.9387,0.6631,-2.1088,-0.3458
9931.0,0.8124,-5.3315,2.6212,0.6631,-2.1088,-0.3458
9936.0,0.8124,-5.3315,2.6212,0.208,-1.1767,-0.0899
9941.0,0.8124,-5.3315,2.6212,0.208,-1.1767,-0.0899
9946.0,0.8124,-5.3315,2.6212,0.208,-1.1767,-0.0899
9951.0,0.8124,-5.3315,2.6212,0.208,-1.1767,-0.0899
9956.0,0.3239,-8.3203,3.4885,0.208,-1.1767,-0.0899
9961.0,0.3239,-8.3203,3.4885,0.208,-1.1767,-0.0899
9966.0,0.3239,-8.3203,3.4885,0.208,-1.1767,-0.0899
9972.0,0.3239,-8.3203,3.4885,0.109,0.8679,0.9993
9976.0,0.3239,-8.3203,3.4885,0.109,0.8679,0.9993
9981.0,0.3239,-8.3203,3.4885,0.109,0.8679,0.9993
9986.0,1.1668,-11.8001,2.2231,0.109,0.8679,0.9993
9991.0,1.1668,-11.8001,2.2231,0.109,0.8679,0.9993
9996.0,1.1668,-11.8001,2.2231,0.109,0.8679,0.9993
10001.0,1.1668,-11.8001,2.2231,-0.0418,2.0194,1.2999
10006.0,1.1668,-11.8001,2.2231,-0.0418,2.0194,1.2999
10011.0,1.5835,-11.7381,1.1379,-0.0418,2.0194,1.2999
10017.0,1.5835,-11.7381,1.1379,-0.0418,2.0194,1.2999
10021.0,1.5835,-11.7381,1.1379,-0.0418,2.0194,1.2999
10027.0,1.5835,-11.7381,1.1379,-0.0418,2.0194,1.2999
10035.0,1.5835,-11.7381,1.1379,-0.0938,1.4996,1.4403
10036.0,1.5835,-11.7381,1.1379,-0.0938,1.4996,1.4403
10041.0,2.2827,-10.2795,0.8298,-0.0938,1.4996,1.4403
10047.0,2.2827,-10.2795,0.8298,-0.0938,1.4996,1.4403
10052.0,2.2827,-10.2795,0.8298,-0.0938,1.4996,1.4403
10056.0,2.2827,-10.2795,0.8298,-0.0938,1.4996,1.4403
10061.0,2.2827,-10.2795,0.8298,-0.12,1.2467,2.4184
10067.0,3.3986,-7.2001,0.2754,-0.12,1.2467,2.4184
10071.0,3.3986,-7.2001,0.2754,-0.12,1.2467,2.4184
10076.0,3.3986,-7.2001,0.2754,-0.12,1.2467,2.4184
10082.0,3.3986,-7.2001,0.2754,-0.12,1.2467,2.4184
10086.0,3.3986,-7.2001,0.2754,-0.12,1.2467,2.4184
10091.0,3.3986,-7.2001,0.2754,0.0015,5.1831,0.152
10096.0,0.2233,-6.4279,-13.5769,0.0015,5.1831,0.152
10101.0,0.2233,-6.4279,-13.5769,0.0015,5.1831,0.152
10106.0,0.2233,-6.4279,-13.5769,0.0015,5.1831,0.152
10111.0,0.2233,-6.4279,-13.5769,0.0015,5.1831,0.152
10116.0,0.2233,-6.4279,-13.5769,0.0015,5.1831,0.152
10121.0,0.9322,-5.7606,-6.5204,0.0015,5.1831,0.152
10126.0,0.9322,-5.7606,-6.5204,-0.3772,-1.936,-0.0325
10131.0,0.9322,-5.7606,-6.5204,-0.3772,-1.936,-0.0325
10136.0,0.9322,-5.7606,-6.5204,-0.3772,-1.936,-0.0325
10141.0,0.9322,-5.7606,-6.5204,-0.3772,-1.936,-0.0325
10146.0,0.3766,-5.527,-3.6959,-0.3772,-1.936,-0.0325
10151.0,0.3766,-5.527,-3.6959,-0.3772,-1.936,-0.0325
10156.0,0.3766,-5.527,-3.6959,-0.2202,-3.4497,-0.5774
10161.0,0.3766,-5.527,-3.6959,-0.2202,-3.4497,-0.5774
10166.0,0.3766,-5.527,-3.6959,-0.2202,-3.4497,-0.5774
10171.0,0.7119,-5.67,-0.3549,-0.2202,-3.4497,-0.5774
10176.0,0.7119,-5.67,-0.3549,-0.2202,-3.4497,-0.5774
10181.0,0.7119,-5.67,-0.3549,-0.2202,-3.4497,-0.5774
10186.0,0.7119,-5.67,-0.3549,-0.398,-1.5377,-0.9842
10210.0,-0.7728,-6.466,0.8678,-0.398,-1.5377,-0.9842
10211.0,-0.7728,-6.466,0.8678,-0.398,-1.5377,-0.9842
10214.0,-0.7728,-6.466,0.8678,-0.398,-1.5377,-0.9842
10214.0,-0.7728,-6.466,0.8678,-0.398,-1.5377,-0.9842
10214.0,-0.7728,-6.466,0.8678,-0.398,-1.5377,-0.9842
10216.0,-0.7728,-6.466,0.8678,-0.1151,-0.8608,-0.9842
10221.0,-0.7728,-6.466,0.8678,-0.1151,-0.8608,-1.4167
10226.0,-0.7728,-6.466,0.8678,-0.1151,-0.8608,-1.4167
10231.0,-1.8887,-5.5699,0.9815,-0.1151,-0.8608,-1.4167
10236.0,-1.8887,-5.5699,0.9815,-0.1151,-0.8608,-1.4167
10241.0,-1.8887,-5.5699,0.9815,-0.1151,-0.8608,-1.4167
10247.0,-1.8887,-5.5699,0.9815,-0.1151,-0.8608,-1.4167
10251.0,-1.8887,-5.5699,0.9815,0.2813,-0.0361,-1.2994
10256.0,-1.8887,-5.5699,0.9815,0.2813,-0.0361,-1.2994
10261.0,-4.8724,-7.4003,-3.7907,0.2813,-0.0361,-1.2994
10266.0,-4.8724,-7.4003,-3.7907,0.2813,-0.0361,-1.2994
10271.0,-4.8724,-7.4003,-3.7907,0.2813,-0.0361,-1.2994
10277.0,-4.8724,-7.4003,-3.7907,0.2813,-0.0361,-1.2994
10281.0,-4.8724,-7.4003,-3.7907,0.3302,1.2112,-1.4539
10286.0,-4.9107,-9.6169,-4.1841,0.3302,1.2112,-1.4539
10291.0,-4.9107,-9.6169,-4.1841,0.3302,1.2112,-1.4539
10297.0,-4.9107,-9.6169,-4.1841,0.3302,1.2112,-1.4539
10302.0,-4.9107,-9.6169,-4.1841,0.3302,1.2112,-1.4539
10306.0,-4.9107,-9.6169,-4.1841,0.3302,1.2112,-1.4539
10311.0,-2.9663,-8.7207,-0.4213,-0.1915,0.6248,-1.5462
10316.0,-2.9663,-8.7207,-0.4213,-0.1915,0.6248,-1.5462
10321.0,-2.9663,-8.7207,-0.4213,-0.1915,0.6248,-1.5462
10326.0,-2.9663,-8.7207,-0.4213,-0.1915,0.6248,-1.5462
10331.0,-2.9663,-8.7207,-0.4213,-0.1915,0.6248,-1.5462
10336.0,-1.0314,-13.5638,-1.5207,-0.1915,0.6248,-1.5462
10341.0,-1.0314,-13.5638,-1.5207,-0.3326,1.9583,-2.1253
10346.0,-1.0314,-13.5638,-1.5207,-0.3326,1.9583,-2.1253
10351.0,-1.0314,-13.5638,-1.5207,-0.3326,1.9583,-2.1253
10356.0,-1.0314,-13.5638,-1.5207,-0.3326,1.9583,-2.1253
10361.0,-1.0314,-13.5638,-1.5207,-0.3326,1.9583,-2.1253
10366.0,0.2329,-21.267,-5.3499,-0.3326,1.9583,-2.1253
10374.0,0.2329,-21.267,-5.3499,0.759,2.4855,-2.5578
10376.0,0.2329,-21.267,-5.3499,0.759,2.4855,-2.5578
10381.0,0.2329,-21.267,-5.3499,0.759,2.4855,-2.5578
10386.0,0.2329,-21.267,-5.3499,0.759,2.4855,-2.5578
10391.0,3.6141,-19.5176,-4.639,0.759,2.4855,-2.5578
10397.0,3.6141,-19.5176,-4.639,0.759,2.4855,-2.5578
10401.0,3.6141,-19.5176,-4.639,0.759,2.4855,-2.5578
10406.0,3.6141,-19.5176,-4.639,0.8732,1.1404,-2.5205
10412.0,3.6141,-19.5176,-4.639,0.8732,1.1404,-2.5205
10418.0,7.9627,-15.9472,-4.7338,0.8732,1.1404,-2.5205
10421.0,7.9627,-15.9472,-4.7338,0.8732,1.1404,-2.5205
10426.0,7.9627,-15.9472,-4.7338,0.8732,1.1404,-2.5205
10431.0,7.9627,-15.9472,-4.7338,0.8732,1.1404,-2.5205
10436.0,7.9627,-15.9472,-4.7338,-0.4756,0.6431,-1.6055
10441.0,7.9627,-15.9472,-4.7338,-0.4756,0.6431,-1.6055
10446.0,6.6313,-9.8362,-6.2314,-0.4756,0.6431,-1.6055
10451.0,6.6313,-9.8362,-6.2314,-0.4756,0.6431,-1.6055
10456.0,6.6313,-9.8362,-6.2314,-0.4756,0.6431,-1.6055
10462.0,6.6313,-9.8362,-6.2314,-0.4756,0.6431,-1.6055
10466.0,6.6313,-9.8362,-6.2314,-0.7285,-0.5096,-1.4833
10471.0,4.3708,-11.8621,-6.4351,-0.7285,-0.5096,-1.4833
10476.0,4.3708,-11.8621,-6.4351,-0.7285,-0.5096,-1.4833
10482.0,4.3708,-11.8621,-6.4351,-0.7285,-0.5096,-1.4833
10486.0,4.3708,-11.8621,-6.4351,-0.7285,-0.5096,-1.4833
10491.0,4.3708,-11.8621,-6.4351,-0.7285,-0.5096,-1.4833
10496.0,4.3708,-11.8621,-6.4351,-0.5024,-1.2756,-0.2866
10501.0,2.9963,-12.4627,-4.9992,-0.5024,-1.2756,-0.2866
10506.0,2.9963,-12.4627,-4.9992,-0.5024,-1.2756,-0.2866
10511.0,2.9963,-12.4627,-4.9992,-0.5024,-1.2756,-0.2866
10516.0,2.9963,-12.4627,-4.9992,-0.5024,-1.2756,-0.2866
10521.0,2.9963,-12.4627,-4.9992,-0.5024,-1.2756,-0.2866
10526.0,1.7559,-9.4548,-2.9709,-0.5024,-1.2756,-0.2866
10531.0,1.7559,-9.4548,-2.9709,0.0418,-1.162,0.138
10536.0,1.7559,-9.4548,-2.9709,0.0418,-1.162,0.138
10541.0,1.7559,-9.4548,-2.9709,0.0418,-1.162,0.138
10546.0,1.7559,-9.4548,-2.9709,0.0418,-1.162,0.138
10551.0,1.7559,-9.4548,-2.9709,0.0418,-1.162,0.138
10558.0,1.3392,-6.7854,-1.1795,0.4554,-0.8804,0.6187
10561.0,1.3392,-6.7854,-1.1795,0.4554,-0.8804,0.6187
10566.0,1.3392,-6.7854,-1.1795,0.4554,-0.8804,0.6187
10571.0,1.3392,-6.7854,-1.1795,0.4554,-0.8804,0.6187
10577.0,1.3392,-6.7854,-1.1795,0.4554,-0.8804,0.6187
10581.0,2.5749,-4.0636,-1.1416,0.4554,-0.8804,0.6187
10587.0,2.5749,-4.0636,-1.1416,0.4554,-0.8804,0.6187
10591.0,2.5749,-4.0636,-1.1416,-0.0137,-0.5181,0.8209
10597.0,2.5749,-4.0636,-1.1416,-0.0137,-0.5181,0.8209
10601.0,2.5749,-4.0636,-1.1416,-0.0137,-0.5181,0.8209
10606.0,2.5749,-4.0636,-1.1416,-0.0137,-0.5181,0.8209
10611.0,2.6994,-2.2665,-0.7625,-0.0137,-0.5181,0.8209
10616.0,2.6994,-2.2665,-0.7625,-0.0137,-0.5181,0.8209
10621.0,2.6994,-2.2665,-0.7625,-0.7101,-0.1852,0.6597
10626.0,2.6994,-2.2665,-0.7625,-0.7101,-0.1852,0.6597
10631.0,2.6994,-2.2665,-0.7625,-0.7101,-0.1852,0.6597
10637.0,1.7846,-3.0721,0.6071,-0.7101,-0.1852,0.6597
10641.0,1.7846,-3.0721,0.6071,-0.7101,-0.1852,0.6597
10646.0,1.7846,-3.0721,0.6071,-0.7101,-0.1852,0.6597
10651.0,1.7846,-3.0721,0.6071,-0.7016,0.7201,1.5833
10656.0,1.7846,-3.0721,0.6071,-0.7016,0.7201,1.5833
10662.0,1.7846,-3.0721,0.6071,-0.7016,0.7201,1.5833
10666.0,1.617,-4.6022,0.4412,-0.7016,0.7201,1.5833
10671.0,1.617,-4.6022,0.4412,-0.7016,0.7201,1.5833
10677.0,1.617,-4.6022,0.4412,-0.7016,0.7201,1.5833
10681.0,1.617,-4.6022,0.4412,-0.7016,0.7201,1.5833
10687.0,1.617,-4.6022,0.4412,-0.4132,0.7476,2.5167
10691.0,1.4877,-8.2345,0.1095,-0.4132,0.7476,2.5167
10696.0,1.4877,-8.2345,0.1095,-0.4132,0.7476,2.5167
10701.0,1.4877,-8.2345,0.1095,-0.4132,0.7476,2.5167
10706.0,1.4877,-8.2345,0.1095,-0.4132,0.7476,2.5167
10711.0,1.4877,-8.2345,0.1095,-0.4132,0.7476,2.5167
10716.0,1.4877,-8.2345,0.1095,0.2825,0.827,2.1935
10721.0,0.6879,-8.6397,-0.3312,0.2825,0.827,2.1935
10727.0,0.6879,-8.6397,-0.3312,0.2825,0.827,2.1935
10731.0,0.6879,-8.6397,-0.3312,0.2825,0.827,2.1935
10736.0,0.6879,-8.6397,-0.3312,0.2825,0.827,2.1935
10741.0,0.6879,-8.6397,-0.3312,0.2825,0.827,2.1935
10746.0,-0.0017,-7.939,-2.5586,0.9496,1.8966,1.3499
10751.0,-0.0017,-7.939,-2.5586,0.9496,1.8966,1.3499
10757.0,-0.0017,-7.939,-2.5586,0.9496,1.8966,1.3499
10761.0,-0.0017,-7.939,-2.5586,0.9496,1.8966,1.3499
10766.0,-0.0017,-7.939,-2.5586,0.9496,1.8966,1.3499
10772.0,-0.0017,-7.939,-2.5586,0.9496,1.8966,1.3499
10776.0,-2.4251,-9.1736,-14.0934,0.5104,0.7867,1.5039
10781.0,-2.4251,-9.1736,-14.0934,0.5104,0.7867,1.5039
10786.0,-2.4251,-9.1736,-14.0934,0.5104,0.7867,1.5039
10792.0,-2.4251,-9.1736,-14.0934,0.5104,0.7867,1.5039
10796.0,-2.4251,-9.1736,-14.0934,0.5104,0.7867,1.5039
10801.0,-1.4385,-9.1593,-8.5867,0.5104,0.7867,1.5039
10806.0,-1.4385,-9.1593,-8.5867,0.5104,0.7867,1.5039
10811.0,-1.4385,-9.1593,-8.5867,1.2062,-2.6317,2.0359
10816.0,-1.4385,-9.1593,-8.5867,1.2062,-2.6317,2.0359
10821.0,-1.4385,-9.1593,-8.5867,1.2062,-2.6317,2.0359
10826.0,-1.4385,-9.1593,-8.5867,1.2062,-2.6317,2.0359
10831.0,2.4982,-5.4412,-2.2648,1.2062,-2.6317,2.0359
10836.0,2.4982,-5.4412,-2.2648,1.2062,-2.6317,2.0359
10841.0,2.4982,-5.4412,-2.2648,1.2868,-0.0349,0.0628
10847.0,2.4982,-5.4412,-2.2648,1.2868,-0.0349,0.0628
10851.0,2.4982,-5.4412,-2.2648,1.2868,-0.0349,0.0628
10856.0,2.4982,-5.4412,-2.2648,1.2868,-0.0349,0.0628
10861.0,6.1572,-7.6768,-2.0657,1.2868,-0.0349,0.0628
10866.0,6.1572,-7.6768,-2.0657,1.2868,-0.0349,0.0628
10871.0,6.1572,-7.6768,-2.0657,-0.5525,-0.9946,-1.1357
10877.0,6.1572,-7.6768,-2.0657,-0.5525,-0.9946,-1.1357
10882.0,6.1572,-7.6768,-2.0657,-0.5525,-0.9946,-1.1357
10886.0,6.4493,-14.7555,-3.6391,-0.5525,-0.9946,-1.1357
10891.0,6.4493,-14.7555,-3.6391,-0.5525,-0.9946,-1.1357
10896.0,6.4493,-14.7555,-3.6391,-0.5525,-0.9946,-1.1357
10901.0,6.4493,-14.7555,-3.6391,-0.9508,-0.7606,0.0867
10906.0,6.4493,-14.7555,-3.6391,-0.9508,-0.7606,0.0867
10911.0,7.843,-15.2465,-9.4776,-0.9508,-0.7606,0.0867
10916.0,7.843,-15.2465,-9.4776,-0.9508,-0.7606,0.0867
10921.0,7.843,-15.2465,-9.4776,-0.9508,-0.7606,0.0867
10926.0,7.843,-15.2465,-9.4776,-0.9508,-0.7606,0.0867
10931.0,7.843,-15.2465,-9.4776,-1.1793,-2.3697,0.003
10936.0,7.843,-15.2465,-9.4776,-1.1793,-2.3697,0.003
10941.0,4.1026,-10.9087,2.5691,-1.1793,-2.3697,0.003
10946.0,4.1026,-10.9087,2.5691,-1.1793,-2.3697,0.003
10952.0,4.1026,-10.9087,2.5691,-1.1793,-2.3697,0.003
10957.0,4.1026,-10.9087,2.5691,-1.1793,-2.3697,0.003
10961.0,4.1026,-10.9087,2.5691,-1.1793,-2.3697,0.003
10966.0,0.98,-8.0486,3.2705,-1.0107,-3.278,0.9999
10971.0,0.98,-8.0486,3.2705,-1.0107,-3.278,0.9999
10976.0,0.98,-8.0486,3.2705,-1.0107,-3.278,0.9999
10981.0,0.98,-8.0486,3.2705,-1.0107,-3.278,0.9999
10986.0,0.98,-8.0486,3.2705,-1.0107,-3.278,0.9999
10992.0,0.98,-8.0486,3.2705,-1.0107,-3.278,0.9999
10996.0,-1.0171,-10.4273,4.768,-0.5446,-1.9793,0.1129
11001.0,-1.0171,-10.4273,4.768,-0.5446,-1.9793,0.1129
11006.0,-1.0171,-10.4273,4.768,-0.5446,-1.9793,0.1129
11012.0,-1.0171,-10.4273,4.768,-0.5446,-1.9793,0.1129
11017.0,-1.0171,-10.4273,4.768,-0.5446,-1.9793,0.1129
11021.0,-1.0554,-17.4774,3.6022,-0.5446,-1.9793,0.1129
11026.0,-1.0554,-17.4774,3.6022,0.0828,-0.2897,-0.8803
11034.0,-1.0554,-17.4774,3.6022,0.0828,-0.2897,-0.8803
11036.0,-1.0554,-17.4774,3.6022,0.0828,-0.2897,-0.8803
11042.0,-1.0554,-17.4774,3.6022,0.0828,-0.2897,-0.8803
11046.0,-1.6971,-19.5223,-2.3453,0.0828,-0.2897,-0.8803
11051.0,-1.6971,-19.5223,-2.3453,0.0828,-0.2897,-0.8803
11056.0,-1.6971,-19.5223,-2.3453,-0.4865,-1.6213,1.0891
