time in milliseconds,acceleration_x,acceleration_y,acceleration_z,Roll,Pitch,Yaw
6.0,-5.3657,-1.5753,8.5403,-0.4543,0.7659,-0.9096
11.0,-5.3657,-1.5753,8.5403,-2.1073,1.7078,-1.3794
16.0,-5.3657,-1.5753,8.5403,-2.1073,1.7078,-1.3794
21.0,-5.3657,-1.5753,8.5403,-2.1073,1.7078,-1.3794
26.0,-5.3657,-1.5753,8.5403,-2.1073,1.7078,-1.3794
31.0,-6.8072,-0.4551,8.1943,-2.1073,1.7078,-1.3794
36.0,-6.8072,-0.4551,8.1943,-2.1073,1.7078,-1.3794
42.0,-6.8072,-0.4551,8.1943,-0.7439,2.626,-0.3873
46.0,-6.8072,-0.4551,8.1943,-0.7439,2.626,-0.3873
51.0,-6.8072,-0.4551,8.1943,-0.7439,2.626,-0.3873
56.0,-6.1128,0.2027,3.8629,-0.7439,2.626,-0.3873
61.0,-6.1128,0.2027,3.8629,-0.7439,2.626,-0.3873
66.0,-6.1128,0.2027,3.8629,-0.7439,2.626,-0.3873
71.0,-6.1128,0.2027,3.8629,-1.312,3.1116,-1.6054
76.0,-6.1128,0.2027,3.8629,-1.312,3.1116,-1.6054
81.0,-6.1128,0.2027,3.8629,-1.312,3.1116,-1.6054
86.0,-7.8609,-1.4704,4.1093,-1.312,3.1116,-1.6054
91.0,-7.8609,-1.4704,4.1093,-1.312,3.1116,-1.6054
96.0,-7.8609,-1.4704,4.1093,-1.312,3.1116,-1.6054
101.0,-7.8609,-1.4704,4.1093,-0.7451,3.4451,-1.9255
106.0,-7.8609,-1.4704,4.1093,-0.7451,3.4451,-1.9255
111.0,-8.6511,-2.1855,3.9055,-0.7451,3.4451,-1.9255
116.0,-8.6511,-2.1855,3.9055,-0.7451,3.4451,-1.9255
121.0,-8.6511,-2.1855,3.9055,-0.7451,3.4451,-1.9255
126.0,-8.6511,-2.1855,3.9055,-0.7451,3.4451,-1.9255
131.0,-8.6511,-2.1855,3.9055,-0.7451,3.4451,-1.9255
136.0,-8.9384,-1.828,4.3273,-0.2381,2.7158,-2.2548
142.0,-8.9384,-1.828,4.3273,-0.2381,2.7158,-2.2548
146.0,-8.9384,-1.828,4.3273,-0.2381,2.7158,-2.2548
151.0,-8.9384,-1.828,4.3273,-0.2381,2.7158,-2.2548
156.0,-8.9384,-1.828,4.3273,-0.2381,2.7158,-2.2548
161.0,-8.9384,-1.828,4.3273,-0.2381,2.7158,-2.2548
166.0,-6.654,-0.4313,4.332,-0.0059,2.3254,-2.6647
171.0,-6.654,-0.4313,4.332,-0.0059,2.3254,-2.6647
176.0,-6.654,-0.4313,4.332,-0.0059,2.3254,-2.6647
181.0,-6.654,-0.4313,4.332,-0.0059,2.3254,-2.6647
186.0,-6.654,-0.4313,4.332,-0.0059,2.3254,-2.6647
191.0,-3.3207,0.0406,3.133,-0.0059,2.3254,-2.6647
197.0,-3.3207,0.0406,3.133,-0.5417,3.8703,-3.6048
201.0,-3.3207,0.0406,3.133,-0.5417,3.8703,-3.6048
206.0,-3.3207,0.0406,3.133,-0.5417,3.8703,-3.6048
211.0,-3.3207,0.0406,3.133,-0.5417,3.8703,-3.6048
216.0,-3.3207,0.0406,3.133,-0.5417,3.8703,-3.6048
221.0,-5.7967,-3.3009,2.3558,-0.5417,3.8703,-3.6048
226.0,-5.7967,-3.3009,2.3558,-0.6388,6.5136,-4.3525
231.0,-5.7967,-3.3009,2.3558,-0.6388,6.5136,-4.3525
236.0,-5.7967,-3.3009,2.3558,-0.6388,6.5136,-4.3525
241.0,-5.7967,-3.3009,2.3558,-0.6388,6.5136,-4.3525
246.0,-5.7967,-3.3009,2.3558,-0.6388,6.5136,-4.3525
251.0,-6.4816,-6.1991,3.8297,-0.6388,6.5136,-4.3525
256.0,-6.4816,-6.1991,3.8297,-1.4769,7.081,-2.2193
261.0,-6.4816,-6.1991,3.8297,-1.4769,7.081,-2.2193
266.0,-6.4816,-6.1991,3.8297,-1.4769,7.081,-2.2193
271.0,-6.4816,-6.1991,3.8297,-1.4769,7.081,-2.2193
276.0,-5.7919,-5.7129,0.1664,-1.4769,7.081,-2.2193
281.0,-5.7919,-5.7129,0.1664,-1.4769,7.081,-2.2193
286.0,-5.7919,-5.7129,0.1664,-1.4769,7.081,-2.2193
291.0,-5.7919,-5.7129,0.1664,-1.9766,6.2698,-0.3189
297.0,-5.7919,-5.7129,0.1664,-1.9766,6.2698,-0.3189
301.0,-5.7919,-5.7129,0.1664,-1.9766,6.2698,-0.3189
306.0,-2.8753,-5.5508,-0.1891,-1.9766,6.2698,-0.3189
311.0,-2.8753,-5.5508,-0.1891,-1.9766,6.2698,-0.3189
316.0,-2.8753,-5.5508,-0.1891,-1.9766,6.2698,-0.3189
321.0,-2.8753,-5.5508,-0.1891,-2.9748,6.092,0.97
326.0,-2.8753,-5.5508,-0.1891,-2.9748,6.092,0.97
331.0,-1.7498,-7.8723,-1.2648,-2.9748,6.092,0.97
337.0,-1.7498,-7.8723,-1.2648,-2.9748,6.092,0.97
341.0,-1.7498,-7.8723,-1.2648,-2.9748,6.092,0.97
346.0,-1.7498,-7.8723,-1.2648,-2.9748,6.092,0.97
351.0,-1.7498,-7.8723,-1.2648,-2.9748,6.092,0.97
356.0,-1.7498,-7.8723,-1.2648,-4.3779,5.1525,2.2143
361.0,-3.9912,-9.288,-1.5823,-4.3779,5.1525,2.2143
366.0,-3.9912,-9.288,-1.5823,-4.3779,5.1525,2.2143
371.0,-3.9912,-9.288,-1.5823,-4.3779,5.1525,2.2143
376.0,-3.9912,-9.288,-1.5823,-4.3779,5.1525,2.2143
381.0,-3.9912,-9.288,-1.5823,-5.866,2.9143,3.0708
386.0,-6.7498,-10.4368,-1.0563,-5.866,2.9143,3.0708
391.0,-6.7498,-10.4368,-1.0563,-5.866,2.9143,3.0708
396.0,-6.7498,-10.4368,-1.0563,-5.866,2.9143,3.0708
402.0,-6.7498,-10.4368,-1.0563,-5.866,2.9143,3.0708
406.0,-6.7498,-10.4368,-1.0563,-5.866,2.9143,3.0708
411.0,-6.7498,-10.4368,-1.0563,-5.866,2.9143,3.0708
416.0,-6.7498,-10.4368,-1.0563,-5.866,2.9143,3.0708
421.0,-6.7498,-10.4368,-1.0563,-5.866,2.9143,3.0708
426.0,-6.7498,-10.4368,-1.0563,-5.866,2.9143,3.0708
431.0,-8.402,-11.8573,-0.2649,-6.2564,1.8581,2.9902
438.0,-8.402,-11.8573,-0.2649,-6.2564,1.8581,2.9902
442.0,-8.402,-11.8573,-0.2649,-6.2564,1.8581,2.9902
456.0,-8.402,-11.8573,-0.2649,-6.2564,1.8581,2.9902
457.0,-8.402,-11.8573,-0.2649,-6.2564,1.8581,2.9902
457.0,-8.402,-11.8573,-0.2649,-6.2564,1.8581,2.9902
461.0,-8.402,-11.8573,-0.2649,-6.2564,1.8581,2.9902
468.0,-8.402,-11.8573,-0.2649,-6.2564,1.8581,2.9902
472.0,-8.402,-11.8573,-0.2649,-6.2564,1.8581,2.9902
477.0,-8.402,-11.8573,-0.2649,-6.2564,1.8581,2.9902
481.0,-8.402,-11.8573,-0.2649,-6.2564,1.8581,2.9902
486.0,-8.402,-11.8573,-0.2649,-6.2564,1.8581,2.9902
492.0,-8.402,-11.8573,-0.2649,-6.2564,1.8581,2.9902
497.0,-19.6759,-14.9891,1.0858,-4.8312,-0.443,1.6194
502.0,-19.6759,-14.9891,1.0858,-4.8312,-0.443,1.6194
512.0,-19.6759,-14.9891,1.0858,-4.8312,-0.443,1.6194
512.0,-19.6759,-14.9891,1.0858,-4.8312,-0.443,1.6194
518.0,-19.6759,-14.9891,1.0858,-4.8312,-0.443,1.6194
521.0,-19.6759,-14.9891,1.0858,-4.8312,-0.443,1.6194
526.0,-19.6759,-14.9891,1.0858,-4.8312,-0.443,1.6194
531.0,-17.5447,-8.7732,-7.8521,-1.0939,-5.0954,0.8674
536.0,-17.5447,-8.7732,-7.8521,-1.0939,-5.0954,0.8674
541.0,-17.5447,-8.7732,-7.8521,-1.0939,-5.0954,0.8674
546.0,-17.5447,-8.7732,-7.8521,-1.0939,-5.0954,0.8674
551.0,-17.5447,-8.7732,-7.8521,-1.0939,-5.0954,0.8674
556.0,-17.5447,-8.7732,-7.8521,-1.0939,-5.0954,0.8674
561.0,-11.448,-8.9925,-0.6724,-0.045,-4.5688,0.9786
567.0,-11.448,-8.9925,-0.6724,-0.045,-4.5688,0.9786
571.0,-11.448,-8.9925,-0.6724,-0.045,-4.5688,0.9786
576.0,-11.448,-8.9925,-0.6724,-0.045,-4.5688,0.9786
581.0,-11.448,-8.9925,-0.6724,-0.045,-4.5688,0.9786
586.0,-7.7699,-3.034,-9.0795,-0.045,-4.5688,0.9786
591.0,-7.7699,-3.034,-9.0795,0.2922,-4.867,0.7953
596.0,-7.7699,-3.034,-9.0795,0.2922,-4.867,0.7953
601.0,-7.7699,-3.034,-9.0795,0.2922,-4.867,0.7953
606.0,-7.7699,-3.034,-9.0795,0.2922,-4.867,0.7953
611.0,-7.7699,-3.034,-9.0795,0.2922,-4.867,0.7953
616.0,-4.1444,-7.7626,-2.9661,0.2922,-4.867,0.7953
621.0,-4.1444,-7.7626,-2.9661,0.2922,-4.867,0.7953
626.0,-4.1444,-7.7626,-2.9661,0.5683,-1.7601,-1.0972
632.0,-4.1444,-7.7626,-2.9661,0.5683,-1.7601,-1.0972
636.0,-4.1444,-7.7626,-2.9661,0.5683,-1.7601,-1.0972
641.0,-5.0735,-10.7133,-0.7151,0.5683,-1.7601,-1.0972
646.0,-5.0735,-10.7133,-0.7151,0.5683,-1.7601,-1.0972
652.0,-5.0735,-10.7133,-0.7151,0.8688,0.7109,-1.4503
656.0,-5.0735,-10.7133,-0.7151,0.8688,0.7109,-1.4503
661.0,-5.0735,-10.7133,-0.7151,0.8688,0.7109,-1.4503
666.0,-5.0735,-10.7133,-0.7151,0.8688,0.7109,-1.4503
671.0,-8.2632,-10.6799,0.6687,0.8688,0.7109,-1.4503
676.0,-8.2632,-10.6799,0.6687,0.8688,0.7109,-1.4503
681.0,-8.2632,-10.6799,0.6687,0.8688,0.7109,-1.4503
686.0,-8.2632,-10.6799,0.6687,2.0105,1.3694,0.6078
691.0,-8.2632,-10.6799,0.6687,2.0105,1.3694,0.6078
696.0,-5.5716,-9.4691,1.4507,2.0105,1.3694,0.6078
701.0,-5.5716,-9.4691,1.4507,2.0105,1.3694,0.6078
706.0,-5.5716,-9.4691,1.4507,2.0105,1.3694,0.6078
712.0,-5.5716,-9.4691,1.4507,2.0417,1.9839,0.6175
716.0,-5.5716,-9.4691,1.4507,2.0417,1.9839,0.6175
721.0,-3.4931,-11.0851,2.8582,2.0417,1.9839,0.6175
726.0,-3.4931,-11.0851,2.8582,2.0417,1.9839,0.6175
731.0,-3.4931,-11.0851,2.8582,2.0417,1.9839,0.6175
736.0,-3.4931,-11.0851,2.8582,2.0417,1.9839,0.6175
741.0,-3.4931,-11.0851,2.8582,1.7253,1.9094,0.4679
747.0,-3.4931,-11.0851,2.8582,1.7253,1.9094,0.4679
751.0,4.8402,-13.0776,4.9197,1.7253,1.9094,0.4679
756.0,4.8402,-13.0776,4.9197,1.7253,1.9094,0.4679
761.0,4.8402,-13.0776,4.9197,1.7253,1.9094,0.4679
769.0,4.8402,-13.0776,4.9197,1.7253,1.9094,0.4679
772.0,4.8402,-13.0776,4.9197,1.7253,1.9094,0.4679
776.0,1.6314,-14.2884,5.4315,0.9024,3.6308,0.799
781.0,1.6314,-14.2884,5.4315,0.9024,3.6308,0.799
786.0,1.6314,-14.2884,5.4315,0.9024,3.6308,0.799
791.0,1.6314,-14.2884,5.4315,0.9024,3.6308,0.799
796.0,1.6314,-14.2884,5.4315,0.9024,3.6308,0.799
802.0,-9.1827,-7.2955,-0.2886,0.9024,3.6308,0.799
807.0,-9.1827,-7.2955,-0.2886,2.5163,2.9357,1.6859
811.0,-9.1827,-7.2955,-0.2886,2.5163,2.9357,1.6859
817.0,-9.1827,-7.2955,-0.2886,2.5163,2.9357,1.6859
821.0,-9.1827,-7.2955,-0.2886,2.5163,2.9357,1.6859
826.0,-9.1827,-7.2955,-0.2886,2.5163,2.9357,1.6859
831.0,-9.1061,-8.6635,1.2753,2.5163,2.9357,1.6859
836.0,-9.1061,-8.6635,1.2753,2.7417,2.4397,1.7739
841.0,-9.1061,-8.6635,1.2753,2.7417,2.4397,1.7739
846.0,-9.1061,-8.6635,1.2753,2.7417,2.4397,1.7739
851.0,-9.1061,-8.6635,1.2753,2.7417,2.4397,1.7739
856.0,1.0375,-9.6455,-0.2791,2.7417,2.4397,1.7739
862.0,1.0375,-9.6455,-0.2791,2.7417,2.4397,1.7739
866.0,1.0375,-9.6455,-0.2791,2.7417,2.4397,1.7739
871.0,1.0375,-9.6455,-0.2791,1.2855,0.9375,2.4117
876.0,1.0375,-9.6455,-0.2791,1.2855,0.9375,2.4117
881.0,1.0375,-9.6455,-0.2791,1.2855,0.9375,2.4117
886.0,2.7042,-7.715,0.8962,1.2855,0.9375,2.4117
891.0,2.7042,-7.715,0.8962,1.2855,0.9375,2.4117
896.0,2.7042,-7.715,0.8962,1.2855,0.9375,2.4117
901.0,2.7042,-7.715,0.8962,-1.0267,0.5667,2.0213
906.0,2.7042,-7.715,0.8962,-1.0267,0.5667,2.0213
911.0,3.7051,-8.1392,5.4694,-1.0267,0.5667,2.0213
916.0,3.7051,-8.1392,5.4694,-1.0267,0.5667,2.0213
921.0,3.7051,-8.1392,5.4694,-1.0267,0.5667,2.0213
926.0,3.7051,-8.1392,5.4694,-1.0267,0.5667,2.0213
931.0,3.7051,-8.1392,5.4694,-0.4732,2.6541,0.9517
936.0,-2.1473,-7.4909,2.3795,-0.4732,2.6541,0.9517
941.0,-2.1473,-7.4909,2.3795,-0.4732,2.6541,0.9517
946.0,-2.1473,-7.4909,2.3795,-0.4732,2.6541,0.9517
952.0,-2.1473,-7.4909,2.3795,-0.4732,2.6541,0.9517
956.0,-2.1473,-7.4909,2.3795,-0.4732,2.6541,0.9517
961.0,-6.6779,-4.7166,-1.715,0.7754,2.5881,0.0561
966.0,-6.6779,-4.7166,-1.715,0.7754,2.5881,0.0561
971.0,-6.6779,-4.7166,-1.715,0.7754,2.5881,0.0561
976.0,-6.6779,-4.7166,-1.715,0.7754,2.5881,0.0561
981.0,-6.6779,-4.7166,-1.715,0.7754,2.5881,0.0561
986.0,-6.6779,-4.7166,-1.715,0.7754,2.5881,0.0561
991.0,-8.2344,-5.6605,-1.7908,0.7754,2.5881,0.0561
997.0,-8.2344,-5.6605,-1.7908,0.9703,-0.4638,-0.0208
1001.0,-8.2344,-5.6605,-1.7908,0.9703,-0.4638,-0.0208
1006.0,-8.2344,-5.6605,-1.7908,0.9703,-0.4638,-0.0208
1011.0,-8.2344,-5.6605,-1.7908,0.9703,-0.4638,-0.0208
1032.0,-5.95,-9.0401,-3.1841,0.9703,-0.4638,-0.0208
1033.0,-5.95,-9.0401,-3.1841,0.9703,-0.4638,-0.0208
1033.0,-5.95,-9.0401,-3.1841,0.9703,-0.4638,-0.0208
1033.0,-5.95,-9.0401,-3.1841,0.9703,-0.4638,-0.0208
1045.0,-5.95,-9.0401,-3.1841,0.9703,-0.4638,-0.0208
1046.0,-5.95,-9.0401,-3.1841,0.9703,-0.4638,-0.0208
1046.0,-5.95,-9.0401,-3.1841,0.9703,-0.4638,-0.0208
1052.0,-5.95,-9.0401,-3.1841,0.9703,-0.4638,-0.0208
1056.0,-5.9787,-9.226,-3.3737,-0.7078,-0.9788,-0.7105
1061.0,-5.9787,-9.226,-3.3737,-0.7078,-0.9788,-0.7105
1066.0,-5.9787,-9.226,-3.3737,-0.7078,-0.9788,-0.7105
1074.0,-5.9787,-9.226,-3.3737,-0.7078,-0.9788,-0.7105
1076.0,-5.9787,-9.226,-3.3737,-0.7078,-0.9788,-0.7105
1081.0,-5.9787,-9.226,-3.3737,-0.7078,-0.9788,-0.7105
1086.0,-5.9787,-9.226,-3.3737,-0.7078,-0.9788,-0.7105
1091.0,-5.9787,-9.226,-3.3737,-0.7078,-0.9788,-0.7105
1096.0,-5.9787,-9.226,-3.3737,-0.7078,-0.9788,-0.7105
1101.0,-5.9787,-9.226,-3.3737,-0.7078,-0.9788,-0.7105
1106.0,-6.9126,-7.5815,0.8535,1.0002,0.0114,-1.0379
1111.0,-6.9126,-7.5815,0.8535,1.0002,0.0114,-1.0379
1120.0,-6.9126,-7.5815,0.8535,1.0002,0.0114,-1.0379
1121.0,-6.9126,-7.5815,0.8535,1.0002,0.0114,-1.0379
1127.0,-6.9126,-7.5815,0.8535,1.0002,0.0114,-1.0379
1131.0,-2.8849,-6.1324,-0.4402,1.0002,0.0114,-1.0379
1137.0,-2.8849,-6.1324,-0.4402,0.4889,-2.8963,-0.8534
1141.0,-2.8849,-6.1324,-0.4402,0.4889,-2.8963,-0.8534
1146.0,-2.8849,-6.1324,-0.4402,0.4889,-2.8963,-0.8534
1151.0,-2.8849,-6.1324,-0.4402,0.4889,-2.8963,-0.8534
1156.0,-2.8849,-6.1324,-0.4402,0.4889,-2.8963,-0.8534
1161.0,-7.2431,-9.0068,3.8676,0.4889,-2.8963,-0.8534
1167.0,-7.2431,-9.0068,3.8676,1.2537,-1.5884,-0.1454
1171.0,-7.2431,-9.0068,3.8676,1.2537,-1.5884,-0.1454
1176.0,-7.2431,-9.0068,3.8676,1.2537,-1.5884,-0.1454
1181.0,-7.2431,-9.0068,3.8676,1.2537,-1.5884,-0.1454
1186.0,-10.2603,-6.4708,-0.862,1.2537,-1.5884,-0.1454
1191.0,-10.2603,-6.4708,-0.862,1.2537,-1.5884,-0.1454
1196.0,-10.2603,-6.4708,-0.862,1.2537,-1.5884,-0.1454
1201.0,-10.2603,-6.4708,-0.862,0.4834,-1.8462,-0.457
1206.0,-10.2603,-6.4708,-0.862,0.4834,-1.8462,-0.457
1211.0,-10.3848,-3.9873,0.2706,0.4834,-1.8462,-0.457
1216.0,-10.3848,-3.9873,0.2706,0.4834,-1.8462,-0.457
1221.0,-10.3848,-3.9873,0.2706,0.4834,-1.8462,-0.457
1226.0,-10.3848,-3.9873,0.2706,0.4834,-1.8462,-0.457
1231.0,-10.3848,-3.9873,0.2706,-0.7512,-1.2549,-1.8186
1236.0,-10.3848,-3.9873,0.2706,-0.7512,-1.2549,-1.8186
1241.0,-11.697,-4.4926,-1.2411,-0.7512,-1.2549,-1.8186
1246.0,-11.697,-4.4926,-1.2411,-0.7512,-1.2549,-1.8186
1251.0,-11.697,-4.4926,-1.2411,-0.7512,-1.2549,-1.8186
1256.0,-11.697,-4.4926,-1.2411,-0.7512,-1.2549,-1.8186
1261.0,-11.697,-4.4926,-1.2411,-0.4598,-0.9323,-2.0318
1266.0,-12.0802,-3.606,-1.516,-0.4598,-0.9323,-2.0318
1272.0,-12.0802,-3.606,-1.516,-0.4598,-0.9323,-2.0318
1276.0,-12.0802,-3.606,-1.516,-0.4598,-0.9323,-2.0318
1281.0,-12.0802,-3.606,-1.516,-0.4598,-0.9323,-2.0318
1286.0,-12.0802,-3.606,-1.516,-0.4598,-0.9323,-2.0318
1291.0,-12.0802,-3.606,-1.516,0.4235,-0.8981,-1.3806
1296.0,-9.8628,-4.8644,-1.5065,0.4235,-0.8981,-1.3806
1301.0,-9.8628,-4.8644,-1.5065,0.4235,-0.8981,-1.3806
1306.0,-9.8628,-4.8644,-1.5065,0.4235,-0.8981,-1.3806
1312.0,-9.8628,-4.8644,-1.5065,0.4235,-0.8981,-1.3806
1316.0,-9.8628,-4.8644,-1.5065,0.4235,-0.8981,-1.3806
1321.0,-7.9662,-4.1398,-1.0705,0.4235,-0.8981,-1.3806
1326.0,-7.9662,-4.1398,-1.0705,-0.6656,-0.7442,-0.8797
1331.0,-7.9662,-4.1398,-1.0705,-0.6656,-0.7442,-0.8797
1336.0,-7.9662,-4.1398,-1.0705,-0.6656,-0.7442,-0.8797
1341.0,-7.9662,-4.1398,-1.0705,-0.6656,-0.7442,-0.8797
1346.0,-6.9796,-2.9911,-1.2411,-0.6656,-0.7442,-0.8797
1352.0,-6.9796,-2.9911,-1.2411,-0.6656,-0.7442,-0.8797
1356.0,-6.9796,-2.9911,-1.2411,-1.271,-0.4504,-0.7893
1361.0,-6.9796,-2.9911,-1.2411,-1.271,-0.4504,-0.7893
1366.0,-6.9796,-2.9911,-1.2411,-1.271,-0.4504,-0.7893
1371.0,-6.9796,-2.9911,-1.2411,-1.271,-0.4504,-0.7893
1377.0,-9.1539,-2.195,-1.4496,-1.271,-0.4504,-0.7893
1381.0,-9.1539,-2.195,-1.4496,-1.271,-0.4504,-0.7893
1386.0,-9.1539,-2.195,-1.4496,-1.4567,-0.057,-0.8369
1391.0,-9.1539,-2.195,-1.4496,-1.4567,-0.057,-0.8369
1396.0,-9.1539,-2.195,-1.4496,-1.4567,-0.057,-0.8369
1402.0,-7.9519,-2.5525,-0.5729,-1.4567,-0.057,-0.8369
1406.0,-7.9519,-2.5525,-0.5729,-1.4567,-0.057,-0.8369
1411.0,-7.9519,-2.5525,-0.5729,-1.4567,-0.057,-0.8369
1416.0,-7.9519,-2.5525,-0.5729,-1.461,0.7463,-0.8528
1422.0,-7.9519,-2.5525,-0.5729,-1.461,0.7463,-0.8528
1426.0,-7.8752,-4.5212,-0.9662,-1.461,0.7463,-0.8528
1432.0,-7.8752,-4.5212,-0.9662,-1.461,0.7463,-0.8528
1436.0,-7.8752,-4.5212,-0.9662,-1.461,0.7463,-0.8528
1441.0,-7.8752,-4.5212,-0.9662,-1.461,0.7463,-0.8528
1446.0,-7.8752,-4.5212,-0.9662,-2.6418,0.954,-0.4961
1451.0,-7.8752,-4.5212,-0.9662,-2.6418,0.954,-0.4961
1456.0,-4.1636,-6.6329,-1.2269,-2.6418,0.954,-0.4961
1461.0,-4.1636,-6.6329,-1.2269,-2.6418,0.954,-0.4961
1466.0,-4.1636,-6.6329,-1.2269,-2.6418,0.954,-0.4961
1471.0,-4.1636,-6.6329,-1.2269,-2.6418,0.954,-0.4961
1476.0,-4.1636,-6.6329,-1.2269,-3.2191,-0.1296,0.5461
1481.0,-1.1895,-9.6074,-0.0516,-3.2191,-0.1296,0.5461
1486.0,-1.1895,-9.6074,-0.0516,-3.2191,-0.1296,0.5461
1491.0,-1.1895,-9.6074,-0.0516,-3.2191,-0.1296,0.5461
1496.0,-1.1895,-9.6074,-0.0516,-3.2191,-0.1296,0.5461
1501.0,-1.1895,-9.6074,-0.0516,-3.2191,-0.1296,0.5461
1506.0,-1.9989,-7.9104,0.6545,-1.2545,-0.9604,1.2938
1511.0,-1.9989,-7.9104,0.6545,-1.2545,-0.9604,1.2938
1516.0,-1.9989,-7.9104,0.6545,-1.2545,-0.9604,1.2938
1521.0,-1.9989,-7.9104,0.6545,-1.2545,-0.9604,1.2938
1526.0,-1.9989,-7.9104,0.6545,-1.2545,-0.9604,1.2938
1531.0,-1.9989,-7.9104,0.6545,-1.2545,-0.9604,1.2938
1536.0,-2.2,-5.0074,1.0621,-1.8978,-1.1113,0.24
1541.0,-2.2,-5.0074,1.0621,-1.8978,-1.1113,0.24
1546.0,-2.2,-5.0074,1.0621,-1.8978,-1.1113,0.24
1551.0,-2.2,-5.0074,1.0621,-1.8978,-1.1113,0.24
1556.0,-2.2,-5.0074,1.0621,-1.8978,-1.1113,0.24
1561.0,-1.3619,-4.5498,2.5264,-1.8978,-1.1113,0.24
1566.0,-1.3619,-4.5498,2.5264,-3.2643,0.1355,-0.9048
1571.0,-1.3619,-4.5498,2.5264,-3.2643,0.1355,-0.9048
1576.0,-1.3619,-4.5498,2.5264,-3.2643,0.1355,-0.9048
1581.0,-1.3619,-4.5498,2.5264,-3.2643,0.1355,-0.9048
1587.0,-0.9357,-3.0959,1.716,-3.2643,0.1355,-0.9048
1594.0,-0.9357,-3.0959,1.716,-3.2643,0.1355,-0.9048
1596.0,-0.9357,-3.0959,1.716,-4.0926,-0.0093,-0.2029
1601.0,-0.9357,-3.0959,1.716,-4.0926,-0.0093,-0.2029
1606.0,-0.9357,-3.0959,1.716,-4.0926,-0.0093,-0.2029
1611.0,-0.9357,-3.0959,1.716,-4.0926,-0.0093,-0.2029
1616.0,-0.1167,-3.7966,2.6639,-4.0926,-0.0093,-0.2029
1621.0,-0.1167,-3.7966,2.6639,-4.0926,-0.0093,-0.2029
1626.0,-0.1167,-3.7966,2.6639,-3.9668,-0.071,0.6976
1631.0,-0.1167,-3.7966,2.6639,-3.9668,-0.071,0.6976
1636.0,-0.1167,-3.7966,2.6639,-3.9668,-0.071,0.6976
1641.0,-0.7632,-17.9064,5.1377,-3.9668,-0.071,0.6976
1646.0,-0.7632,-17.9064,5.1377,-3.9668,-0.071,0.6976
1652.0,-0.7632,-17.9064,5.1377,-3.9668,-0.071,0.6976
1656.0,-0.7632,-17.9064,5.1377,-3.9668,-0.071,0.6976
1661.0,-0.7632,-17.9064,5.1377,-4.6992,1.5631,1.821
1666.0,-0.7632,-17.9064,5.1377,-4.6992,1.5631,1.821
1671.0,6.5691,-36.4302,4.896,-4.6992,1.5631,1.821
1676.0,6.5691,-36.4302,4.896,-4.6992,1.5631,1.821
1681.0,6.5691,-36.4302,4.896,-4.6992,1.5631,1.821
1686.0,6.5691,-36.4302,4.896,-4.6992,1.5631,1.821
1691.0,6.5691,-36.4302,4.896,-4.8006,10.6626,-4.2816
1696.0,5.8363,-16.7671,-5.7101,-4.8006,10.6626,-4.2816
1702.0,5.8363,-16.7671,-5.7101,-4.8006,10.6626,-4.2816
1707.0,5.8363,-16.7671,-5.7101,-4.8006,10.6626,-4.2816
1711.0,5.8363,-16.7671,-5.7101,-4.8006,10.6626,-4.2816
1716.0,5.8363,-16.7671,-5.7101,-4.8006,10.6626,-4.2816
1721.0,3.753,-12.0718,-1.0326,-3.4604,7.7793,-5.2041
1726.0,3.753,-12.0718,-1.0326,-3.4604,7.7793,-5.2041
1731.0,3.753,-12.0718,-1.0326,-3.4604,7.7793,-5.2041
1736.0,3.753,-12.0718,-1.0326,-3.4604,7.7793,-5.2041
1741.0,3.753,-12.0718,-1.0326,-3.4604,7.7793,-5.2041
1746.0,3.753,-12.0718,-1.0326,-3.4604,7.7793,-5.2041
1751.0,8.0058,-5.6509,-10.1932,-1.3162,1.1452,-3.4368
1756.0,8.0058,-5.6509,-10.1932,-1.3162,1.1452,-3.4368
1761.0,8.0058,-5.6509,-10.1932,-1.3162,1.1452,-3.4368
1766.0,8.0058,-5.6509,-10.1932,-1.3162,1.1452,-3.4368
1771.0,8.0058,-5.6509,-10.1932,-1.3162,1.1452,-3.4368
1777.0,8.3411,-4.7262,-1.8667,-1.3162,1.1452,-3.4368
1781.0,8.3411,-4.7262,-1.8667,-0.2722,-4.4876,-1.8992
1786.0,8.3411,-4.7262,-1.8667,-0.2722,-4.4876,-1.8992
1791.0,8.3411,-4.7262,-1.8667,-0.2722,-4.4876,-1.8992
1796.0,8.3411,-4.7262,-1.8667,-0.2722,-4.4876,-1.8992
1801.0,8.3411,-4.7262,-1.8667,-0.2722,-4.4876,-1.8992
1806.0,7.7807,-8.0677,-0.317,-0.2722,-4.4876,-1.8992
1811.0,7.7807,-8.0677,-0.317,-0.946,-0.5542,-0.815
1816.0,7.7807,-8.0677,-0.317,-0.946,-0.5542,-0.815
1821.0,7.7807,-8.0677,-0.317,-0.946,-0.5542,-0.815
1826.0,7.7807,-8.0677,-0.317,-0.946,-0.5542,-0.815
1831.0,6.5547,-8.9782,-2.5396,-0.946,-0.5542,-0.815
1836.0,6.5547,-8.9782,-2.5396,-0.946,-0.5542,-0.815
1842.0,6.5547,-8.9782,-2.5396,-1.2417,-1.3887,-0.198
1846.0,6.5547,-8.9782,-2.5396,-1.2417,-1.3887,-0.198
1851.0,6.5547,-8.9782,-2.5396,-1.2417,-1.3887,-0.198
1856.0,4.6055,-9.0592,-3.3074,-1.2417,-1.3887,-0.198
1861.0,4.6055,-9.0592,-3.3074,-1.2417,-1.3887,-0.198
1866.0,4.6055,-9.0592,-3.3074,-1.2417,-1.3887,-0.198
1871.0,4.6055,-9.0592,-3.3074,-1.2417,-1.3887,-0.198
1876.0,4.6055,-9.0592,-3.3074,-1.2594,-2.2579,-0.6732
1881.0,4.6055,-9.0592,-3.3074,-1.2594,-2.2579,-0.6732
1886.0,3.3507,-8.1583,-2.0373,-1.2594,-2.2579,-0.6732
1891.0,3.3507,-8.1583,-2.0373,-1.2594,-2.2579,-0.6732
1896.0,3.3507,-8.1583,-2.0373,-1.2594,-2.2579,-0.6732
1901.0,3.3507,-8.1583,-2.0373,-1.2594,-2.2579,-0.6732
1906.0,3.3507,-8.1583,-2.0373,-1.3064,-2.1192,-0.7612
1911.0,2.7712,-7.6482,-1.2411,-1.3064,-2.1192,-0.7612
1916.0,2.7712,-7.6482,-1.2411,-1.3064,-2.1192,-0.7612
1921.0,2.7712,-7.6482,-1.2411,-1.3064,-2.1192,-0.7612
1927.0,2.7712,-7.6482,-1.2411,-1.3064,-2.1192,-0.7612
1931.0,2.7712,-7.6482,-1.2411,-1.3064,-2.1192,-0.7612
1936.0,2.412,-7.6911,-0.4165,-0.8654,-1.4039,-0.292
1942.0,2.412,-7.6911,-0.4165,-0.8654,-1.4039,-0.292
1946.0,2.412,-7.6911,-0.4165,-0.8654,-1.4039,-0.292
1951.0,2.412,-7.6911,-0.4165,-0.8654,-1.4039,-0.292
1956.0,2.412,-7.6911,-0.4165,-0.8654,-1.4039,-0.292
1962.0,2.412,-7.6911,-0.4165,-0.8654,-1.4039,-0.292
1966.0,2.1678,-7.5862,-1.5112,-0.3681,-0.9537,0.0677
1971.0,2.1678,-7.5862,-1.5112,-0.3681,-0.9537,0.0677
1977.0,2.1678,-7.5862,-1.5112,-0.3681,-0.9537,0.0677
1981.0,2.1678,-7.5862,-1.5112,-0.3681,-0.9537,0.0677
1986.0,2.1678,-7.5862,-1.5112,-0.3681,-0.9537,0.0677
1991.0,2.6371,-6.3374,-1.7814,-0.3681,-0.9537,0.0677
1996.0,2.6371,-6.3374,-1.7814,-0.3681,-0.9537,0.0677
2001.0,2.6371,-6.3374,-1.7814,-0.1262,-0.4888,0.0897
2006.0,2.6371,-6.3374,-1.7814,-0.1262,-0.4888,0.0897
2012.0,2.6371,-6.3374,-1.7814,-0.1262,-0.4888,0.0897
2016.0,3.4609,-5.3506,-2.1226,-0.1262,-0.4888,0.0897
2021.0,3.4609,-5.3506,-2.1226,-0.1262,-0.4888,0.0897
2026.0,3.4609,-5.3506,-2.1226,-0.1262,-0.4888,0.0897
2031.0,3.4609,-5.3506,-2.1226,0.002,-0.0973,0.3261
2036.0,3.4609,-5.3506,-2.1226,0.002,-0.0973,0.3261
2041.0,3.4609,-5.3506,-2.1226,0.002,-0.0973,0.3261
2046.0,2.8479,-4.75,-2.1937,0.002,-0.0973,0.3261
2051.0,2.8479,-4.75,-2.1937,0.002,-0.0973,0.3261
2056.0,2.8479,-4.75,-2.1937,0.002,-0.0973,0.3261
2061.0,2.8479,-4.75,-2.1937,0.1199,0.6535,0.5528
2066.0,2.8479,-4.75,-2.1937,0.1199,0.6535,0.5528
2071.0,2.4072,-5.7892,-3.3974,0.1199,0.6535,0.5528
2076.0,2.4072,-5.7892,-3.3974,0.1199,0.6535,0.5528
2081.0,2.4072,-5.7892,-3.3974,0.1199,0.6535,0.5528
2086.0,2.4072,-5.7892,-3.3974,0.1199,0.6535,0.5528
2091.0,2.4072,-5.7892,-3.3974,0.2836,0.1599,0.8442
2096.0,2.4072,-5.7892,-3.3974,0.2836,0.1599,0.8442
2101.0,2.7473,-6.161,-3.568,0.2836,0.1599,0.8442
2106.0,2.7473,-6.161,-3.568,0.2836,0.1599,0.8442
2111.0,2.7473,-6.161,-3.568,0.2836,0.1599,0.8442
2116.0,2.7473,-6.161,-3.568,0.2836,0.1599,0.8442
2121.0,2.7473,-6.161,-3.568,0.4461,0.2198,0.9993
2126.0,2.6563,-7.6434,-5.8475,0.4461,0.2198,0.9993
2131.0,2.6563,-7.6434,-5.8475,0.4461,0.2198,0.9993
2136.0,2.6563,-7.6434,-5.8475,0.4461,0.2198,0.9993
2141.0,2.6563,-7.6434,-5.8475,0.4461,0.2198,0.9993
2146.0,2.6563,-7.6434,-5.8475,0.4461,0.2198,0.9993
2151.0,2.5174,-11.1232,-13.9133,0.4461,0.2198,0.9993
2157.0,2.5174,-11.1232,-13.9133,0.3741,1.1526,0.7134
2161.0,2.5174,-11.1232,-13.9133,0.3741,1.1526,0.7134
2166.0,2.5174,-11.1232,-13.9133,0.3741,1.1526,0.7134
2171.0,2.5174,-11.1232,-13.9133,0.3741,1.1526,0.7134
2176.0,2.5174,-11.1232,-13.9133,0.3741,1.1526,0.7134
2181.0,2.9915,-12.6248,-17.117,0.3741,1.1526,0.7134
2187.0,2.9915,-12.6248,-17.117,0.5194,-0.3948,-0.5822
2191.0,2.9915,-12.6248,-17.117,0.5194,-0.3948,-0.5822
2196.0,2.9915,-12.6248,-17.117,0.5194,-0.3948,-0.5822
2201.0,2.9915,-12.6248,-17.117,0.5194,-0.3948,-0.5822
2206.0,5.367,-8.8781,-8.9753,0.5194,-0.3948,-0.5822
2211.0,5.367,-8.8781,-8.9753,0.5194,-0.3948,-0.5822
2216.0,5.367,-8.8781,-8.9753,-0.0609,-0.4027,-1.4185
2221.0,5.367,-8.8781,-8.9753,-0.0609,-0.4027,-1.4185
2226.0,5.367,-8.8781,-8.9753,-0.0609,-0.4027,-1.4185
2231.0,5.367,-8.8781,-8.9753,-0.0609,-0.4027,-1.4185
2236.0,7.3832,-3.8539,-4.113,-0.0609,-0.4027,-1.4185
2241.0,7.3832,-3.8539,-4.113,-0.0609,-0.4027,-1.4185
2247.0,7.3832,-3.8539,-4.113,-0.111,0.5356,-1.2786
2251.0,7.3832,-3.8539,-4.113,-0.111,0.5356,-1.2786
2257.0,7.3832,-3.8539,-4.113,-0.111,0.5356,-1.2786
2261.0,10.2616,-4.24,-0.3786,-0.111,0.5356,-1.2786
2266.0,10.2616,-4.24,-0.3786,-0.111,0.5356,-1.2786
2271.0,10.2616,-4.24,-0.3786,-0.111,0.5356,-1.2786
2276.0,10.2616,-4.24,-0.3786,-0.4909,-1.6031,1.7165
2282.0,10.2616,-4.24,-0.3786,-0.4909,-1.6031,1.7165
2286.0,12.4359,-10.1746,3.6496,-0.4909,-1.6031,1.7165
2291.0,12.4359,-10.1746,3.6496,-0.4909,-1.6031,1.7165
2296.0,12.4359,-10.1746,3.6496,-0.4909,-1.6031,1.7165
2301.0,12.4359,-10.1746,3.6496,-0.4909,-1.6031,1.7165
2306.0,12.4359,-10.1746,3.6496,-0.64,-5.6727,3.6438
2311.0,18.317,-15.5659,-13.0082,-0.64,-5.6727,3.6438
2316.0,18.317,-15.5659,-13.0082,-0.64,-5.6727,3.6438
2322.0,18.317,-15.5659,-13.0082,-0.64,-5.6727,3.6438
2326.0,18.317,-15.5659,-13.0082,-0.64,-5.6727,3.6438
2331.0,18.317,-15.5659,-13.0082,-0.64,-5.6727,3.6438
2338.0,5.9273,-6.7997,2.4032,-0.7292,4.2277,-3.551
2341.0,5.9273,-6.7997,2.4032,-0.7292,4.2277,-3.551
2347.0,5.9273,-6.7997,2.4032,-0.7292,4.2277,-3.551
2351.0,5.9273,-6.7997,2.4032,-0.7292,4.2277,-3.551
2356.0,5.9273,-6.7997,2.4032,-0.7292,4.2277,-3.551
2362.0,5.9273,-6.7997,2.4032,-0.7292,4.2277,-3.551
2366.0,-0.9931,-6.3564,-1.9804,-1.1391,0.1807,2.2901
2372.0,-0.9931,-6.3564,-1.9804,-1.1391,0.1807,2.2901
2376.0,-0.9931,-6.3564,-1.9804,-1.1391,0.1807,2.2901
2381.0,-0.9931,-6.3564,-1.9804,-1.1391,0.1807,2.2901
2386.0,-0.9931,-6.3564,-1.9804,-1.1391,0.1807,2.2901
2391.0,1.1189,-5.9465,0.5313,-1.1391,0.1807,2.2901
2396.0,1.1189,-5.9465,0.5313,0.2079,-3.6996,3.78
2401.0,1.1189,-5.9465,0.5313,0.2079,-3.6996,3.78
2406.0,1.1189,-5.9465,0.5313,0.2079,-3.6996,3.78
2411.0,1.1189,-5.9465,0.5313,0.2079,-3.6996,3.78
2416.0,2.1247,-8.5491,3.1946,0.2079,-3.6996,3.78
2421.0,2.1247,-8.5491,3.1946,0.2079,-3.6996,3.78
2426.0,2.1247,-8.5491,3.1946,0.2079,-3.6996,3.78
2432.0,2.1247,-8.5491,3.1946,1.1676,-3.3746,3.5045
2437.0,2.1247,-8.5491,3.1946,1.1676,-3.3746,3.5045
2441.0,2.1247,-8.5491,3.1946,1.1676,-3.3746,3.5045
2446.0,2.9676,-13.4256,4.1614,1.1676,-3.3746,3.5045
2451.0,2.9676,-13.4256,4.1614,1.1676,-3.3746,3.5045
2457.0,2.9676,-13.4256,4.1614,1.1676,-3.3746,3.5045
2461.0,2.9676,-13.4256,4.1614,1.0766,-1.7075,1.9285
2466.0,2.9676,-13.4256,4.1614,1.0766,-1.7075,1.9285
2471.0,2.9676,-13.4256,4.1614,1.0766,-1.7075,1.9285
2476.0,2.0145,-12.2959,4.0524,1.0766,-1.7075,1.9285
2481.0,2.0145,-12.2959,4.0524,1.0766,-1.7075,1.9285
2486.0,2.0145,-12.2959,4.0524,1.0766,-1.7075,1.9285
2492.0,2.0145,-12.2959,4.0524,-0.1684,-0.4937,0.6047
2496.0,2.0145,-12.2959,4.0524,-0.1684,-0.4937,0.6047
2501.0,0.6927,-8.0248,2.5738,-0.1684,-0.4937,0.6047
2507.0,0.6927,-8.0248,2.5738,-0.1684,-0.4937,0.6047
2514.0,0.6927,-8.0248,2.5738,-0.1684,-0.4937,0.6047
2516.0,0.6927,-8.0248,2.5738,-0.1684,-0.4937,0.6047
2521.0,0.6927,-8.0248,2.5738,-0.1684,-0.4937,0.6047
2526.0,1.368,-7.6196,1.7682,-0.6284,-0.0557,0.6572
2531.0,1.368,-7.6196,1.7682,-0.6284,-0.0557,0.6572
2536.0,1.368,-7.6196,1.7682,-0.6284,-0.0557,0.6572
2542.0,1.368,-7.6196,1.7682,-0.6284,-0.0557,0.6572
2546.0,1.368,-7.6196,1.7682,-0.6284,-0.0557,0.6572
2552.0,2.9867,-9.3929,1.2943,-0.6284,-0.0557,0.6572
2556.0,2.9867,-9.3929,1.2943,-0.6284,-0.0557,0.6572
2561.0,2.9867,-9.3929,1.2943,-0.1879,0.122,0.9969
2566.0,2.9867,-9.3929,1.2943,-0.1879,0.122,0.9969
2572.0,2.9867,-9.3929,1.2943,-0.1879,0.122,0.9969
2576.0,2.9867,-9.3929,1.2943,-0.1879,0.122,0.9969
2581.0,4.6103,-10.6322,0.9246,-0.1879,0.122,0.9969
2586.0,4.6103,-10.6322,0.9246,-0.1879,0.122,0.9969
2591.0,4.6103,-10.6322,0.9246,0.4706,-0.0539,1.6988
2596.0,4.6103,-10.6322,0.9246,0.4706,-0.0539,1.6988
2601.0,4.6103,-10.6322,0.9246,0.4706,-0.0539,1.6988
2606.0,6.7558,-11.3806,-19.5197,0.4706,-0.0539,1.6988
2611.0,6.7558,-11.3806,-19.5197,0.4706,-0.0539,1.6988
2616.0,6.7558,-11.3806,-19.5197,0.4706,-0.0539,1.6988
2621.0,6.7558,-11.3806,-19.5197,0.404,-2.6709,0.8466
2626.0,6.7558,-11.3806,-19.5197,0.404,-2.6709,0.8466
2631.0,6.7558,-11.3806,-19.5197,0.404,-2.6709,0.8466
2636.0,4.1984,-8.2202,-1.625,0.404,-2.6709,0.8466
2641.0,4.1984,-8.2202,-1.625,0.404,-2.6709,0.8466
2646.0,4.1984,-8.2202,-1.625,0.404,-2.6709,0.8466
2651.0,4.1984,-8.2202,-1.625,-0.0731,-3.4039,1.0079
2657.0,4.1984,-8.2202,-1.625,-0.0731,-3.4039,1.0079
2661.0,3.1879,-8.2488,2.1236,-0.0731,-3.4039,1.0079
2666.0,3.1879,-8.2488,2.1236,-0.0731,-3.4039,1.0079
2671.0,3.1879,-8.2488,2.1236,-0.0731,-3.4039,1.0079
2676.0,3.1879,-8.2488,2.1236,-0.0731,-3.4039,1.0079
2681.0,3.1879,-8.2488,2.1236,-0.0731,-3.4039,1.0079
2686.0,3.1879,-8.2488,2.1236,0.0405,-2.0209,0.4459
2692.0,2.3354,-8.3108,2.3748,0.0405,-2.0209,0.4459
2696.0,2.3354,-8.3108,2.3748,0.0405,-2.0209,0.4459
2701.0,2.3354,-8.3108,2.3748,0.0405,-2.0209,0.4459
2706.0,2.3354,-8.3108,2.3748,0.0405,-2.0209,0.4459
2711.0,2.3354,-8.3108,2.3748,0.0405,-2.0209,0.4459
2717.0,2.3354,-8.3108,2.3748,-0.2472,-0.3435,-0.4118
2721.0,1.3392,-9.9601,2.4933,-0.2472,-0.3435,-0.4118
2726.0,1.3392,-9.9601,2.4933,-0.2472,-0.3435,-0.4118
2731.0,1.3392,-9.9601,2.4933,-0.2472,-0.3435,-0.4118
2736.0,1.3392,-9.9601,2.4933,-0.2472,-0.3435,-0.4118
2741.0,1.3392,-9.9601,2.4933,-0.2472,-0.3435,-0.4118
2746.0,0.798,-11.0946,2.4933,-0.4683,1.4812,-0.6091
2751.0,0.798,-11.0946,2.4933,-0.4683,1.4812,-0.6091
2756.0,0.798,-11.0946,2.4933,-0.4683,1.4812,-0.6091
2761.0,0.798,-11.0946,2.4933,-0.4683,1.4812,-0.6091
2766.0,0.798,-11.0946,2.4933,-0.4683,1.4812,-0.6091
2771.0,0.798,-11.0946,2.4933,-0.4683,1.4812,-0.6091
2776.0,1.5691,-11.0231,1.1474,0.0943,3.1245,0.1197
2781.0,1.5691,-11.0231,1.1474,0.0943,3.1245,0.1197
2786.0,1.5691,-11.0231,1.1474,0.0943,3.1245,0.1197
2792.0,1.5691,-11.0231,1.1474,0.0943,3.1245,0.1197
2796.0,1.5691,-11.0231,1.1474,0.0943,3.1245,0.1197
2801.0,2.7377,-9.1736,-0.3312,0.0943,3.1245,0.1197
2806.0,2.7377,-9.1736,-0.3312,0.5085,2.472,0.937
2812.0,2.7377,-9.1736,-0.3312,0.5085,2.472,0.937
2816.0,2.7377,-9.1736,-0.3312,0.5085,2.472,0.937
2822.0,2.7377,-9.1736,-0.3312,0.5085,2.472,0.937
2827.0,5.6208,-7.3717,-9.6293,0.5085,2.472,0.937
2832.0,5.6208,-7.3717,-9.6293,0.5085,2.472,0.937
2836.0,5.6208,-7.3717,-9.6293,-0.1201,-2.6024,0.3237
2841.0,5.6208,-7.3717,-9.6293,-0.1201,-2.6024,0.3237
2847.0,5.6208,-7.3717,-9.6293,-0.1201,-2.6024,0.3237
2851.0,5.6208,-7.3717,-9.6293,-0.1201,-2.6024,0.3237
2856.0,3.6333,-9.7551,0.1285,-0.1201,-2.6024,0.3237
2861.0,3.6333,-9.7551,0.1285,-0.1201,-2.6024,0.3237
2866.0,3.6333,-9.7551,0.1285,0.4596,-1.8663,1.3573
2871.0,3.6333,-9.7551,0.1285,0.4596,-1.8663,1.3573
2876.0,3.6333,-9.7551,0.1285,0.4596,-1.8663,1.3573
2881.0,3.6333,-9.7551,0.1285,0.4596,-1.8663,1.3573
2887.0,2.8909,-8.5777,0.8772,0.4596,-1.8663,1.3573
2891.0,2.8909,-8.5777,0.8772,0.4596,-1.8663,1.3573
2896.0,2.8909,-8.5777,0.8772,-0.0273,-1.1779,0.5497
2901.0,2.8909,-8.5777,0.8772,-0.0273,-1.1779,0.5497
2906.0,2.8909,-8.5777,0.8772,-0.0273,-1.1779,0.5497
2911.0,2.3402,-8.5873,1.427,-0.0273,-1.1779,0.5497
2916.0,2.3402,-8.5873,1.427,-0.0273,-1.1779,0.5497
2921.0,2.3402,-8.5873,1.427,-0.0273,-1.1779,0.5497
2926.0,2.3402,-8.5873,1.427,-0.1995,0.2411,0.3298
2931.0,2.3402,-8.5873,1.427,-0.1995,0.2411,0.3298
2936.0,2.3402,-8.5873,1.427,-0.1995,0.2411,0.3298
2942.0,1.6601,-9.4834,0.9341,-0.1995,0.2411,0.3298
2946.0,1.6601,-9.4834,0.9341,-0.1995,0.2411,0.3298
2951.0,1.6601,-9.4834,0.9341,-0.1995,0.2411,0.3298
2957.0,1.6601,-9.4834,0.9341,-0.0877,0.5728,0.4202
2961.0,1.6601,-9.4834,0.9341,-0.0877,0.5728,0.4202
2966.0,1.7272,-9.5359,-0.6203,-0.0877,0.5728,0.4202
2972.0,1.7272,-9.5359,-0.6203,-0.0877,0.5728,0.4202
2976.0,1.7272,-9.5359,-0.6203,-0.0877,0.5728,0.4202
2981.0,1.7272,-9.5359,-0.6203,-0.0877,0.5728,0.4202
2986.0,1.7272,-9.5359,-0.6203,-0.0877,0.5728,0.4202
2991.0,1.7272,-9.5359,-0.6203,-0.0932,0.0872,0.496
2996.0,3.1879,-9.3023,-0.6961,-0.0932,0.0872,0.496
3001.0,3.1879,-9.3023,-0.6961,-0.0932,0.0872,0.496
3006.0,3.1879,-9.3023,-0.6961,-0.0932,0.0872,0.496
3011.0,3.1879,-9.3023,-0.6961,-0.0932,0.0872,0.496
3017.0,3.1879,-9.3023,-0.6961,-0.0932,0.0872,0.496
3021.0,3.595,-9.0544,-0.1037,-0.1158,0.0108,0.4648
3026.0,3.595,-9.0544,-0.1037,-0.1158,0.0108,0.4648
3031.0,3.595,-9.0544,-0.1037,-0.1158,0.0108,0.4648
3036.0,3.595,-9.0544,-0.1037,-0.1158,0.0108,0.4648
3041.0,3.595,-9.0544,-0.1037,-0.1158,0.0108,0.4648
3046.0,3.595,-9.0544,-0.1037,-0.1158,0.0108,0.4648
3051.0,3.2453,-8.94,0.5029,-0.2038,-0.1535,0.4123
3057.0,3.2453,-8.94,0.5029,-0.2038,-0.1535,0.4123
3062.0,3.2453,-8.94,0.5029,-0.2038,-0.1535,0.4123
3066.0,3.2453,-8.94,0.5029,-0.2038,-0.1535,0.4123
3071.0,3.2453,-8.94,0.5029,-0.2038,-0.1535,0.4123
3077.0,3.0586,-9.0163,0.8393,-0.2038,-0.1535,0.4123
3081.0,3.0586,-9.0163,0.8393,-0.2588,-0.0967,0.3817
3087.0,3.0586,-9.0163,0.8393,-0.2588,-0.0967,0.3817
3091.0,3.0586,-9.0163,0.8393,-0.2588,-0.0967,0.3817
3096.0,3.0586,-9.0163,0.8393,-0.2588,-0.0967,0.3817
3101.0,2.9149,-9.1974,0.9389,-0.2588,-0.0967,0.3817
3106.0,2.9149,-9.1974,0.9389,-0.2588,-0.0967,0.3817
3111.0,2.9149,-9.1974,0.9389,-0.2588,-0.0967,0.3817
3116.0,2.9149,-9.1974,0.9389,-0.3034,0.0823,0.4483
3122.0,2.9149,-9.1974,0.9389,-0.3034,0.0823,0.4483
3127.0,2.5461,-9.2117,0.7588,-0.3034,0.0823,0.4483
3132.0,2.5461,-9.2117,0.7588,-0.3034,0.0823,0.4483
3136.0,2.5461,-9.2117,0.7588,-0.3034,0.0823,0.4483
3141.0,2.5461,-9.2117,0.7588,-0.3034,0.0823,0.4483
3146.0,2.5461,-9.2117,0.7588,-0.2863,0.2216,0.4404
3152.0,2.5461,-9.2117,0.7588,-0.2863,0.2216,0.4404
3156.0,2.4599,-9.0687,0.6592,-0.2863,0.2216,0.4404
3161.0,2.4599,-9.0687,0.6592,-0.2863,0.2216,0.4404
3166.0,2.4599,-9.0687,0.6592,-0.2863,0.2216,0.4404
3171.0,2.4599,-9.0687,0.6592,-0.2863,0.2216,0.4404
3177.0,2.4599,-9.0687,0.6592,-0.2521,0.2442,0.3451
3181.0,2.8718,-9.6741,0.645,-0.2521,0.2442,0.3451
3186.0,2.8718,-9.6741,0.645,-0.2521,0.2442,0.3451
3191.0,2.8718,-9.6741,0.645,-0.2521,0.2442,0.3451
3197.0,2.8718,-9.6741,0.645,-0.2521,0.2442,0.3451
3201.0,2.8718,-9.6741,0.645,-0.2521,0.2442,0.3451
3206.0,2.8718,-9.6741,0.645,-0.2215,-0.09,0.2168
3211.0,3.1927,-10.2318,0.6971,-0.2215,-0.09,0.2168
3216.0,3.1927,-10.2318,0.6971,-0.2215,-0.09,0.2168
3222.0,3.1927,-10.2318,0.6971,-0.2215,-0.09,0.2168
3226.0,3.1927,-10.2318,0.6971,-0.2215,-0.09,0.2168
3232.0,3.1927,-10.2318,0.6971,-0.2215,-0.09,0.2168
3237.0,3.0777,-10.3224,0.8962,-0.1898,-0.5902,0.0628
3241.0,3.0777,-10.3224,0.8962,-0.1898,-0.5902,0.0628
3246.0,3.0777,-10.3224,0.8962,-0.1898,-0.5902,0.0628
3251.0,3.0777,-10.3224,0.8962,-0.1898,-0.5902,0.0628
3257.0,3.0777,-10.3224,0.8962,-0.1898,-0.5902,0.0628
3261.0,2.8047,-10.8277,1.3132,-0.1898,-0.5902,0.0628
3266.0,2.8047,-10.8277,1.3132,-0.1898,-0.5902,0.0628
3271.0,2.8047,-10.8277,1.3132,-0.0957,-0.6153,-0.0099
3277.0,2.8047,-10.8277,1.3132,-0.0957,-0.6153,-0.0099
3281.0,2.8047,-10.8277,1.3132,-0.0957,-0.6153,-0.0099
3286.0,2.8047,-10.8277,1.3132,-0.0957,-0.6153,-0.0099
3291.0,2.0863,-12.3912,1.6497,-0.0957,-0.6153,-0.0099
3296.0,2.0863,-12.3912,1.6497,-0.0957,-0.6153,-0.0099
3301.0,2.0863,-12.3912,1.6497,0.1768,0.1813,-0.2029
3306.0,2.0863,-12.3912,1.6497,0.1768,0.1813,-0.2029
3312.0,2.0863,-12.3912,1.6497,0.1768,0.1813,-0.2029
3316.0,2.3833,-14.8223,1.9293,0.1768,0.1813,-0.2029
3321.0,2.3833,-14.8223,1.9293,0.1768,0.1813,-0.2029
3326.0,2.3833,-14.8223,1.9293,0.1768,0.1813,-0.2029
3331.0,2.3833,-14.8223,1.9293,0.6184,0.8557,-0.2291
3336.0,2.3833,-14.8223,1.9293,0.6184,0.8557,-0.2291
3341.0,2.3833,-14.8223,1.9293,0.6184,0.8557,-0.2291
3346.0,3.7339,-13.602,1.5597,0.6184,0.8557,-0.2291
3351.0,3.7339,-13.602,1.5597,0.6184,0.8557,-0.2291
3356.0,3.7339,-13.602,1.5597,0.6184,0.8557,-0.2291
3361.0,3.7339,-13.602,1.5597,0.7327,0.6516,0.9443
3366.0,3.7339,-13.602,1.5597,0.7327,0.6516,0.9443
3371.0,4.8114,-10.8849,0.9673,0.7327,0.6516,0.9443
3376.0,4.8114,-10.8849,0.9673,0.7327,0.6516,0.9443
3381.0,4.8114,-10.8849,0.9673,0.7327,0.6516,0.9443
3386.0,4.8114,-10.8849,0.9673,0.7327,0.6516,0.9443
3391.0,4.8114,-10.8849,0.9673,0.3741,0.2729,1.7977
3396.0,4.8114,-10.8849,0.9673,0.3741,0.2729,1.7977
3401.0,6.8564,-9.207,1.0621,0.3741,0.2729,1.7977
3406.0,6.8564,-9.207,1.0621,0.3741,0.2729,1.7977
3412.0,6.8564,-9.207,1.0621,0.3741,0.2729,1.7977
3416.0,6.8564,-9.207,1.0621,0.3741,0.2729,1.7977
3421.0,6.8564,-9.207,1.0621,-0.7249,3.2112,-0.5835
3426.0,7.8238,-7.6387,-2.6202,-0.7249,3.2112,-0.5835
3431.0,7.8238,-7.6387,-2.6202,-0.7249,3.2112,-0.5835
3437.0,7.8238,-7.6387,-2.6202,-0.7249,3.2112,-0.5835
3441.0,7.8238,-7.6387,-2.6202,-0.7249,3.2112,-0.5835
3447.0,7.8238,-7.6387,-2.6202,-0.7249,3.2112,-0.5835
3451.0,7.8238,-7.6387,-2.6202,-0.7249,3.2112,-0.5835
3456.0,4.639,-10.0841,-1.715,-0.8629,0.6211,-1.8528
3461.0,4.639,-10.0841,-1.715,-0.8629,0.6211,-1.8528
3466.0,4.639,-10.0841,-1.715,-0.8629,0.6211,-1.8528
3471.0,4.639,-10.0841,-1.715,-0.8629,0.6211,-1.8528
3476.0,4.639,-10.0841,-1.715,-0.8629,0.6211,-1.8528
3481.0,3.1065,-9.8886,0.4128,-0.8629,0.6211,-1.8528
3486.0,3.1065,-9.8886,0.4128,-0.5428,-0.9861,-1.2951
3491.0,3.1065,-9.8886,0.4128,-0.5428,-0.9861,-1.2951
3496.0,3.1065,-9.8886,0.4128,-0.5428,-0.9861,-1.2951
3502.0,3.1065,-9.8886,0.4128,-0.5428,-0.9861,-1.2951
3506.0,1.7607,-9.6503,-1.3027,-0.5428,-0.9861,-1.2951
3511.0,1.7607,-9.6503,-1.3027,-0.5428,-0.9861,-1.2951
3516.0,1.7607,-9.6503,-1.3027,-0.4848,-0.7588,-0.7679
3521.0,1.7607,-9.6503,-1.3027,-0.4848,-0.7588,-0.7679
3526.0,1.7607,-9.6503,-1.3027,-0.4848,-0.7588,-0.7679
3531.0,1.7607,-9.6503,-1.3027,-0.4848,-0.7588,-0.7679
3536.0,1.0184,-11.0565,-3.0941,-0.4848,-0.7588,-0.7679
3541.0,1.0184,-11.0565,-3.0941,-0.4848,-0.7588,-0.7679
3546.0,1.0184,-11.0565,-3.0941,-0.0376,-0.8725,-1.9384
3552.0,1.0184,-11.0565,-3.0941,-0.0376,-0.8725,-1.9384
3556.0,1.0184,-11.0565,-3.0941,-0.0376,-0.8725,-1.9384
3561.0,1.0758,-10.8658,-3.2789,-0.0376,-0.8725,-1.9384
3567.0,1.0758,-10.8658,-3.2789,-0.0376,-0.8725,-1.9384
3571.0,1.0758,-10.8658,-3.2789,-0.0376,-0.8725,-1.9384
3576.0,1.0758,-10.8658,-3.2789,-0.1177,-0.9433,-2.9072
3581.0,1.0758,-10.8658,-3.2789,-0.1177,-0.9433,-2.9072
3586.0,1.0758,-10.8658,-3.2789,-0.1177,-0.9433,-2.9072
3591.0,2.2109,-10.5035,-2.1321,-0.1177,-0.9433,-2.9072
3596.0,2.2109,-10.5035,-2.1321,-0.1177,-0.9433,-2.9072
3601.0,2.2109,-10.5035,-2.1321,-0.1177,-0.9433,-2.9072
3607.0,2.2109,-10.5035,-2.1321,-0.1177,-0.9433,-2.9072
3612.0,2.2109,-10.5035,-2.1321,-0.2771,-1.7057,-2.2267
3617.0,3.9925,-9.8886,0.1095,-0.2771,-1.7057,-2.2267
3622.0,3.9925,-9.8886,0.1095,-0.2771,-1.7057,-2.2267
3626.0,3.9925,-9.8886,0.1095,-0.2771,-1.7057,-2.2267
3631.0,3.9925,-9.8886,0.1095,-0.2771,-1.7057,-2.2267
3636.0,3.9925,-9.8886,0.1095,-0.2771,-1.7057,-2.2267
3641.0,3.9925,-9.8886,0.1095,-0.3144,-3.4882,-0.5156
3646.0,3.9925,-9.8886,0.1095,-0.3144,-3.4882,-0.5156
3651.0,4.8833,-9.35,1.2658,-0.3144,-3.4882,-0.5156
3656.0,4.8833,-9.35,1.2658,-0.3144,-3.4882,-0.5156
3661.0,4.8833,-9.35,1.2658,-0.3144,-3.4882,-0.5156
3666.0,4.8833,-9.35,1.2658,-0.3144,-3.4882,-0.5156
3671.0,4.8833,-9.35,1.2658,0.3118,-2.5139,-0.9274
3677.0,5.2664,-9.0735,0.1095,0.3118,-2.5139,-0.9274
3681.0,5.2664,-9.0735,0.1095,0.3118,-2.5139,-0.9274
3686.0,5.2664,-9.0735,0.1095,0.3118,-2.5139,-0.9274
3691.0,5.2664,-9.0735,0.1095,0.3118,-2.5139,-0.9274
3696.0,5.2664,-9.0735,0.1095,0.3118,-2.5139,-0.9274
3701.0,4.1218,-7.8151,-1.1369,0.2024,0.8508,-3.2786
3706.0,4.1218,-7.8151,-1.1369,0.2024,0.8508,-3.2786
3711.0,4.1218,-7.8151,-1.1369,0.2024,0.8508,-3.2786
3716.0,4.1218,-7.8151,-1.1369,0.2024,0.8508,-3.2786
3721.0,4.1218,-7.8151,-1.1369,0.2024,0.8508,-3.2786
3726.0,4.1218,-7.8151,-1.1369,0.2024,0.8508,-3.2786
3731.0,3.298,-8.4109,-2.1984,0.2024,0.8508,-3.2786
3736.0,3.298,-8.4109,-2.1984,-0.2142,0.5478,-4.5272
3742.0,3.298,-8.4109,-2.1984,-0.2142,0.5478,-4.5272
3746.0,3.298,-8.4109,-2.1984,-0.2142,0.5478,-4.5272
3751.0,3.298,-8.4109,-2.1984,-0.2142,0.5478,-4.5272
3757.0,2.23,-11.4712,-2.3595,-0.2142,0.5478,-4.5272
3761.0,2.23,-11.4712,-2.3595,-0.2142,0.5478,-4.5272
3766.0,2.23,-11.4712,-2.3595,-0.3107,0.2155,-4.0886
3771.0,2.23,-11.4712,-2.3595,-0.3107,0.2155,-4.0886
3776.0,2.23,-11.4712,-2.3595,-0.3107,0.2155,-4.0886
3781.0,4.1601,-11.7811,-6.3167,-0.3107,0.2155,-4.0886
3786.0,4.1601,-11.7811,-6.3167,-0.3107,0.2155,-4.0886
3791.0,4.1601,-11.7811,-6.3167,-0.3107,0.2155,-4.0886
3796.0,4.1601,-11.7811,-6.3167,0.0473,-1.4937,-2.7227
3801.0,4.1601,-11.7811,-6.3167,0.0473,-1.4937,-2.7227
3806.0,4.1601,-11.7811,-6.3167,0.0473,-1.4937,-2.7227
3811.0,4.8785,-10.0173,-4.4495,0.0473,-1.4937,-2.7227
3816.0,4.8785,-10.0173,-4.4495,0.0473,-1.4937,-2.7227
3821.0,4.8785,-10.0173,-4.4495,0.0473,-1.4937,-2.7227
3827.0,4.8785,-10.0173,-4.4495,0.0473,-1.4937,-2.7227
3831.0,4.8785,-10.0173,-4.4495,0.4621,-1.355,-2.6763
3836.0,4.1218,-8.9448,-2.8619,0.4621,-1.355,-2.6763
3841.0,4.1218,-8.9448,-2.8619,0.4621,-1.355,-2.6763
3846.0,4.1218,-8.9448,-2.8619,0.4621,-1.355,-2.6763
3851.0,4.1218,-8.9448,-2.8619,0.4621,-1.355,-2.6763
3856.0,4.1218,-8.9448,-2.8619,0.4621,-1.355,-2.6763
3862.0,2.7569,-7.243,-2.8761,0.8145,-0.1382,-3.1705
3866.0,2.7569,-7.243,-2.8761,0.8145,-0.1382,-3.1705
3871.0,2.7569,-7.243,-2.8761,0.8145,-0.1382,-3.1705
3876.0,2.7569,-7.243,-2.8761,0.8145,-0.1382,-3.1705
3882.0,2.7569,-7.243,-2.8761,0.8145,-0.1382,-3.1705
3886.0,2.7569,-7.243,-2.8761,0.8145,-0.1382,-3.1705
3891.0,2.1247,-5.6843,-3.4922,0.7406,0.1734,-2.6183
3896.0,2.1247,-5.6843,-3.4922,0.7406,0.1734,-2.6183
3901.0,2.1247,-5.6843,-3.4922,0.7406,0.1734,-2.6183
3906.0,2.1247,-5.6843,-3.4922,0.7406,0.1734,-2.6183
3911.0,2.1247,-5.6843,-3.4922,0.7406,0.1734,-2.6183
3916.0,1.4733,-4.1446,-2.9709,0.7406,0.1734,-2.6183
3921.0,1.4733,-4.1446,-2.9709,0.6203,-0.0398,-1.4356
3926.0,1.4733,-4.1446,-2.9709,0.6203,-0.0398,-1.4356
3931.0,1.4733,-4.1446,-2.9709,0.6203,-0.0398,-1.4356
3936.0,1.4733,-4.1446,-2.9709,0.6203,-0.0398,-1.4356
3941.0,1.4733,-4.1446,-2.9709,0.6203,-0.0398,-1.4356
3946.0,1.459,-2.9386,-2.8145,0.6203,-0.0398,-1.4356
3951.0,1.459,-2.9386,-2.8145,0.6203,-0.0398,-1.4356
3956.0,1.459,-2.9386,-2.8145,0.6734,0.3554,-0.606
3961.0,1.459,-2.9386,-2.8145,0.6734,0.3554,-0.606
3966.0,1.459,-2.9386,-2.8145,0.6734,0.3554,-0.606
3971.0,1.3153,-1.5324,-2.5728,0.6734,0.3554,-0.606
3977.0,1.3153,-1.5324,-2.5728,0.6734,0.3554,-0.606
3981.0,1.3153,-1.5324,-2.5728,0.6734,0.3554,-0.606
3986.0,1.3153,-1.5324,-2.5728,0.759,1.0616,0.1826
3991.0,1.3153,-1.5324,-2.5728,0.759,1.0616,0.1826
3996.0,0.9082,-0.2358,-3.1652,0.759,1.0616,0.1826
4001.0,0.9082,-0.2358,-3.1652,0.759,1.0616,0.1826
4006.0,0.9082,-0.2358,-3.1652,0.759,1.0616,0.1826
4012.0,0.9082,-0.2358,-3.1652,0.6985,1.3273,1.463
4016.0,0.9082,-0.2358,-3.1652,0.6985,1.3273,1.463
4021.0,0.9082,-0.2358,-3.1652,0.6985,1.3273,1.463
4026.0,1.3871,1.1894,-4.8144,0.6985,1.3273,1.463
4031.0,1.3871,1.1894,-4.8144,0.6985,1.3273,1.463
4036.0,1.3871,1.1894,-4.8144,0.6985,1.3273,1.463
4041.0,1.3871,1.1894,-4.8144,0.6985,1.3273,1.463
4046.0,1.3871,1.1894,-4.8144,0.5635,1.3902,2.7537
4052.0,-1.223,-0.2311,-8.5961,0.5635,1.3902,2.7537
4056.0,-1.223,-0.2311,-8.5961,0.5635,1.3902,2.7537
4062.0,-1.223,-0.2311,-8.5961,0.5635,1.3902,2.7537
4066.0,-1.223,-0.2311,-8.5961,0.5635,1.3902,2.7537
4071.0,-1.223,-0.2311,-8.5961,0.5635,1.3902,2.7537
4076.0,-2.4538,-4.2161,-12.8471,0.5635,1.3902,2.7537
4081.0,-2.4538,-4.2161,-12.8471,0.3387,-0.1284,2.7024
4086.0,-2.4538,-4.2161,-12.8471,0.3387,-0.1284,2.7024
4091.0,-2.4538,-4.2161,-12.8471,0.3387,-0.1284,2.7024
4096.0,-2.4538,-4.2161,-12.8471,0.3387,-0.1284,2.7024
4101.0,-2.4538,-4.2161,-12.8471,0.3387,-0.1284,2.7024
4106.0,10.6638,-11.2424,-14.3541,0.3387,-0.1284,2.7024
4112.0,10.6638,-11.2424,-14.3541,-1.2783,0.042,1.3292
4116.0,10.6638,-11.2424,-14.3541,-1.2783,0.042,1.3292
4121.0,10.6638,-11.2424,-14.3541,-1.2783,0.042,1.3292
4126.0,10.6638,-11.2424,-14.3541,-1.2783,0.042,1.3292
4131.0,10.6638,-11.2424,-14.3541,-1.2783,0.042,1.3292
4136.0,10.6638,-11.2424,-14.3541,-1.2783,0.042,1.3292
4142.0,14.4665,-23.9221,-8.8236,-1.8006,0.5771,0.6499
4146.0,14.4665,-23.9221,-8.8236,-1.8006,0.5771,0.6499
4152.0,14.4665,-23.9221,-8.8236,-1.8006,0.5771,0.6499
4156.0,14.4665,-23.9221,-8.8236,-1.8006,0.5771,0.6499
4161.0,14.4665,-23.9221,-8.8236,-1.8006,0.5771,0.6499
4167.0,14.4665,-23.9221,-8.8236,-1.8006,0.5771,0.6499
4171.0,2.3402,-3.9682,-0.4402,-1.8006,0.5771,0.6499
4176.0,2.3402,-3.9682,-0.4402,0.5189,-1.5023,2.9474
4181.0,2.3402,-3.9682,-0.4402,0.5189,-1.5023,2.9474
4186.0,2.3402,-3.9682,-0.4402,0.5189,-1.5023,2.9474
4192.0,2.3402,-3.9682,-0.4402,0.5189,-1.5023,2.9474
4196.0,-1.0602,1.2323,-1.933,0.5189,-1.5023,2.9474
4202.0,-1.0602,1.2323,-1.933,0.5189,-1.5023,2.9474
4206.0,-1.0602,1.2323,-1.933,0.5036,0.6523,2.1875
4212.0,-1.0602,1.2323,-1.933,0.5036,0.6523,2.1875
4216.0,-1.0602,1.2323,-1.933,0.5036,0.6523,2.1875
4221.0,-1.0602,1.2323,-1.933,0.5036,0.6523,2.1875
4227.0,2.3114,-1.2988,-0.6298,0.5036,0.6523,2.1875
4231.0,2.3114,-1.2988,-0.6298,0.5036,0.6523,2.1875
4236.0,2.3114,-1.2988,-0.6298,-0.3821,-0.1638,2.1581
4241.0,2.3114,-1.2988,-0.6298,-0.3821,-0.1638,2.1581
4246.0,2.3114,-1.2988,-0.6298,-0.3821,-0.1638,2.1581
4252.0,7.2539,-11.0231,-2.26,-0.3821,-0.1638,2.1581
4256.0,7.2539,-11.0231,-2.26,-0.3821,-0.1638,2.1581
4261.0,7.2539,-11.0231,-2.26,-0.3821,-0.1638,2.1581
4266.0,7.2539,-11.0231,-2.26,-0.3821,-0.1638,2.1581
4271.0,7.2539,-11.0231,-2.26,-1.0132,0.59,1.8515
4276.0,9.8641,-18.712,-4.1414,-1.0132,0.59,1.8515
4281.0,9.8641,-18.712,-4.1414,-1.0132,0.59,1.8515
4286.0,9.8641,-18.712,-4.1414,-1.0132,0.59,1.8515
4291.0,9.8641,-18.712,-4.1414,-1.0132,0.59,1.8515
4297.0,9.8641,-18.712,-4.1414,-1.0132,0.59,1.8515
4301.0,9.8641,-18.712,-4.1414,0.112,0.2283,1.8069
4306.0,3.9542,-12.1576,-2.5017,0.112,0.2283,1.8069
4311.0,3.9542,-12.1576,-2.5017,0.112,0.2283,1.8069
4316.0,3.9542,-12.1576,-2.5017,0.112,0.2283,1.8069
4321.0,3.9542,-12.1576,-2.5017,0.112,0.2283,1.8069
4326.0,3.9542,-12.1576,-2.5017,0.112,0.2283,1.8069
4331.0,3.3746,-6.8951,-0.7909,0.1927,0.3151,2.0476
4336.0,3.3746,-6.8951,-0.7909,0.1927,0.3151,2.0476
4341.0,3.3746,-6.8951,-0.7909,0.1927,0.3151,2.0476
4346.0,3.3746,-6.8951,-0.7909,0.1927,0.3151,2.0476
4351.0,3.3746,-6.8951,-0.7909,0.1927,0.3151,2.0476
4356.0,3.3746,-6.8951,-0.7909,0.1927,0.3151,2.0476
4361.0,2.5605,-6.7997,-0.2412,-0.2795,-0.1559,1.9865
4366.0,2.5605,-6.7997,-0.2412,-0.2795,-0.1559,1.9865
4372.0,2.5605,-6.7997,-0.2412,-0.2795,-0.1559,1.9865
4376.0,2.5605,-6.7997,-0.2412,-0.2795,-0.1559,1.9865
4382.0,2.5605,-6.7997,-0.2412,-0.2795,-0.1559,1.9865
4387.0,1.5547,-7.5815,0.6592,-0.2795,-0.1559,1.9865
4391.0,1.5547,-7.5815,0.6592,-0.3382,0.1251,1.5515
4397.0,1.5547,-7.5815,0.6592,-0.3382,0.1251,1.5515
4401.0,1.5547,-7.5815,0.6592,-0.3382,0.1251,1.5515
4406.0,1.5547,-7.5815,0.6592,-0.3382,0.1251,1.5515
4411.0,1.617,-7.4909,-1.2932,-0.3382,0.1251,1.5515
4416.0,1.617,-7.4909,-1.2932,-0.3382,0.1251,1.5515
4421.0,1.617,-7.4909,-1.2932,-0.2642,1.7146,0.901
4426.0,1.617,-7.4909,-1.2932,-0.2642,1.7146,0.901
4431.0,1.617,-7.4909,-1.2932,-0.2642,1.7146,0.901
4436.0,1.617,-7.4909,-1.2932,-0.2642,1.7146,0.901
4441.0,3.0202,-8.7494,-1.933,-0.2642,1.7146,0.901
4446.0,3.0202,-8.7494,-1.933,-0.2642,1.7146,0.901
4451.0,3.0202,-8.7494,-1.933,-0.2031,2.1111,0.3585
4456.0,3.0202,-8.7494,-1.933,-0.2031,2.1111,0.3585
4461.0,3.0202,-8.7494,-1.933,-0.2031,2.1111,0.3585
4466.0,3.025,-8.8733,-1.4402,-0.2031,2.1111,0.3585
4471.0,3.025,-8.8733,-1.4402,-0.2031,2.1111,0.3585
4476.0,3.025,-8.8733,-1.4402,-0.2031,2.1111,0.3585
4481.0,3.025,-8.8733,-1.4402,-0.0132,1.4898,0.623
4486.0,3.025,-8.8733,-1.4402,-0.0132,1.4898,0.623
4491.0,3.025,-8.8733,-1.4402,-0.0132,1.4898,0.623
4496.0,1.89,-8.001,-0.8241,-0.0132,1.4898,0.623
4501.0,1.89,-8.001,-0.8241,-0.0132,1.4898,0.623
4506.0,1.89,-8.001,-0.8241,-0.0132,1.4898,0.623
4512.0,1.89,-8.001,-0.8241,-0.0095,0.7555,0.9791
4516.0,1.89,-8.001,-0.8241,-0.0095,0.7555,0.9791
4521.0,1.0662,-7.8341,0.01,-0.0095,0.7555,0.9791
4526.0,1.0662,-7.8341,0.01,-0.0095,0.7555,0.9791
4531.0,1.0662,-7.8341,0.01,-0.0095,0.7555,0.9791
4536.0,1.0662,-7.8341,0.01,-0.0095,0.7555,0.9791
4542.0,1.0662,-7.8341,0.01,0.065,0.108,1.2015
4547.0,0.6975,-7.6911,0.4934,0.065,0.108,1.2015
4551.0,0.6975,-7.6911,0.4934,0.065,0.108,1.2015
4556.0,0.6975,-7.6911,0.4934,0.065,0.108,1.2015
4561.0,0.6975,-7.6911,0.4934,0.065,0.108,1.2015
4567.0,0.6975,-7.6911,0.4934,0.065,0.108,1.2015
4571.0,0.6975,-7.6911,0.4934,0.065,0.108,1.2015
4576.0,0.9465,-8.3013,0.6782,0.3332,-0.1669,1.4532
4582.0,0.9465,-8.3013,0.6782,0.3332,-0.1669,1.4532
4586.0,0.9465,-8.3013,0.6782,0.3332,-0.1669,1.4532
4591.0,0.9465,-8.3013,0.6782,0.3332,-0.1669,1.4532
4596.0,0.9465,-8.3013,0.6782,0.3332,-0.1669,1.4532
4601.0,2.0863,-9.922,0.4602,0.3332,-0.1669,1.4532
4606.0,2.0863,-9.922,0.4602,0.6221,-0.2695,1.4813
4611.0,2.0863,-9.922,0.4602,0.6221,-0.2695,1.4813
4616.0,2.0863,-9.922,0.4602,0.6221,-0.2695,1.4813
4621.0,2.0863,-9.922,0.4602,0.6221,-0.2695,1.4813
4626.0,2.0863,-9.922,0.4602,0.6221,-0.2695,1.4813
4631.0,4.3325,-12.8869,0.5455,0.6221,-0.2695,1.4813
4636.0,4.3325,-12.8869,0.5455,0.6221,-0.2695,1.4813
4641.0,4.3325,-12.8869,0.5455,0.7315,-0.76,1.557
4647.0,4.3325,-12.8869,0.5455,0.7315,-0.76,1.557
4651.0,4.3325,-12.8869,0.5455,0.7315,-0.76,1.557
4656.0,8.3459,-15.9091,-4.3973,0.7315,-0.76,1.557
4662.0,8.3459,-15.9091,-4.3973,0.7315,-0.76,1.557
4667.0,8.3459,-15.9091,-4.3973,0.7315,-0.76,1.557
4671.0,8.3459,-15.9091,-4.3973,0.1102,7.1104,-1.9769
4676.0,8.3459,-15.9091,-4.3973,0.1102,7.1104,-1.9769
4681.0,2.6659,-8.4491,-15.681,0.1102,7.1104,-1.9769
4686.0,2.6659,-8.4491,-15.681,0.1102,7.1104,-1.9769
4691.0,2.6659,-8.4491,-15.681,0.1102,7.1104,-1.9769
4696.0,2.6659,-8.4491,-15.681,0.1102,7.1104,-1.9769
4702.0,2.6659,-8.4491,-15.681,-0.0284,0.1886,-0.8052
4706.0,4.2271,-8.02,-6.4636,-0.0284,0.1886,-0.8052
4711.0,4.2271,-8.02,-6.4636,-0.0284,0.1886,-0.8052
4716.0,4.2271,-8.02,-6.4636,-0.0284,0.1886,-0.8052
4721.0,4.2271,-8.02,-6.4636,-0.0284,0.1886,-0.8052
4726.0,4.2271,-8.02,-6.4636,-0.0284,0.1886,-0.8052
4731.0,4.2271,-8.02,-6.4636,-0.2575,-5.8242,2.5375
4736.0,3.5614,-10.78,0.4176,-0.2575,-5.8242,2.5375
4741.0,3.5614,-10.78,0.4176,-0.2575,-5.8242,2.5375
4746.0,3.5614,-10.78,0.4176,-0.2575,-5.8242,2.5375
4751.0,3.5614,-10.78,0.4176,-0.2575,-5.8242,2.5375
4756.0,3.5614,-10.78,0.4176,-0.2575,-5.8242,2.5375
4761.0,4.7683,-12.6009,2.6923,0.5342,-4.0813,2.3102
4766.0,4.7683,-12.6009,2.6923,0.5342,-4.0813,2.3102
4771.0,4.7683,-12.6009,2.6923,0.5342,-4.0813,2.3102
4776.0,4.7683,-12.6009,2.6923,0.5342,-4.0813,2.3102
4781.0,4.7683,-12.6009,2.6923,0.5342,-4.0813,2.3102
4786.0,4.7683,-12.6009,2.6923,0.5342,-4.0813,2.3102
4792.0,4.7013,-14.0739,2.7113,0.5342,-4.0813,2.3102
4797.0,4.7013,-14.0739,2.7113,0.4493,0.009,-0.1998
4802.0,4.7013,-14.0739,2.7113,0.4493,0.009,-0.1998
4806.0,4.7013,-14.0739,2.7113,0.4493,0.009,-0.1998
4812.0,4.7013,-14.0739,2.7113,0.4493,0.009,-0.1998
4817.0,4.3038,-14.3647,2.2137,0.4493,0.009,-0.1998
4821.0,4.3038,-14.3647,2.2137,0.4493,0.009,-0.1998
4826.0,4.3038,-14.3647,2.2137,0.1707,-0.4864,-1.7539
4831.0,4.3038,-14.3647,2.2137,0.1707,-0.4864,-1.7539
4837.0,4.3038,-14.3647,2.2137,0.1707,-0.4864,-1.7539
4841.0,6.0231,-13.5829,1.7919,0.1707,-0.4864,-1.7539
4846.0,6.0231,-13.5829,1.7919,0.1707,-0.4864,-1.7539
4851.0,6.0231,-13.5829,1.7919,0.1707,-0.4864,-1.7539
4857.0,6.0231,-13.5829,1.7919,-0.1543,-2.1406,-1.1955
4861.0,6.0231,-13.5829,1.7919,-0.1543,-2.1406,-1.1955
4866.0,6.0231,-13.5829,1.7919,-0.1543,-2.1406,-1.1955
4871.0,7.4072,-11.2567,3.7207,-0.1543,-2.1406,-1.1955
4877.0,7.4072,-11.2567,3.7207,-0.1543,-2.1406,-1.1955
4881.0,7.4072,-11.2567,3.7207,-0.1543,-2.1406,-1.1955
4886.0,7.4072,-11.2567,3.7207,-0.0461,1.4483,0.0121
4891.0,7.4072,-11.2567,3.7207,-0.0461,1.4483,0.0121
4896.0,7.0624,-6.9618,1.0715,-0.0461,1.4483,0.0121
4901.0,7.0624,-6.9618,1.0715,-0.0461,1.4483,0.0121
4907.0,7.0624,-6.9618,1.0715,-0.0461,1.4483,0.0121
4911.0,7.0624,-6.9618,1.0715,-0.0461,1.4483,0.0121
4916.0,7.0624,-6.9618,1.0715,-0.4364,2.8111,0.7727
4921.0,7.0624,-6.9618,1.0715,-0.4364,2.8111,0.7727
4926.0,4.5432,-7.8723,-0.4213,-0.4364,2.8111,0.7727
4931.0,4.5432,-7.8723,-0.4213,-0.4364,2.8111,0.7727
4936.0,4.5432,-7.8723,-0.4213,-0.4364,2.8111,0.7727
4941.0,4.5432,-7.8723,-0.4213,-0.4364,2.8111,0.7727
4947.0,4.5432,-7.8723,-0.4213,-0.3247,4.1941,-1.6256
4951.0,3.9111,-10.8992,-5.5442,-0.3247,4.1941,-1.6256
4956.0,3.9111,-10.8992,-5.5442,-0.3247,4.1941,-1.6256
4961.0,3.9111,-10.8992,-5.5442,-0.3247,4.1941,-1.6256
4966.0,3.9111,-10.8992,-5.5442,-0.3247,4.1941,-1.6256
4971.0,3.9111,-10.8992,-5.5442,-0.3247,4.1941,-1.6256
4976.0,3.9111,-10.8992,-5.5442,-0.9911,1.5081,-4.7899
4981.0,3.6189,-12.0813,-7.0417,-0.9911,1.5081,-4.7899
4986.0,3.6189,-12.0813,-7.0417,-0.9911,1.5081,-4.7899
4991.0,3.6189,-12.0813,-7.0417,-0.9911,1.5081,-4.7899
4996.0,3.6189,-12.0813,-7.0417,-0.9911,1.5081,-4.7899
5001.0,3.6189,-12.0813,-7.0417,-0.9911,1.5081,-4.7899
5006.0,6.2961,-10.9039,-4.5016,-0.9911,1.5081,-4.7899
5012.0,6.2961,-10.9039,-4.5016,-1.087,1.1062,-5.9292
5016.0,6.2961,-10.9039,-4.5016,-1.087,1.1062,-5.9292
5021.0,6.2961,-10.9039,-4.5016,-1.087,1.1062,-5.9292
5026.0,6.2961,-10.9039,-4.5016,-1.087,1.1062,-5.9292
5031.0,6.2961,-10.9039,-4.5016,-1.087,1.1062,-5.9292
5036.0,5.0174,-8.144,-5.1366,-1.087,1.1062,-5.9292
5041.0,5.0174,-8.144,-5.1366,-1.5055,-0.6134,-2.8748
5046.0,5.0174,-8.144,-5.1366,-1.5055,-0.6134,-2.8748
5051.0,5.0174,-8.144,-5.1366,-1.5055,-0.6134,-2.8748
5056.0,5.0174,-8.144,-5.1366,-1.5055,-0.6134,-2.8748
5062.0,3.2885,-7.2955,-3.8144,-1.5055,-0.6134,-2.8748
5066.0,3.2885,-7.2955,-3.8144,-1.5055,-0.6134,-2.8748
5071.0,3.2885,-7.2955,-3.8144,-2.2691,-5.6672,0.1765
5076.0,3.2885,-7.2955,-3.8144,-2.2691,-5.6672,0.1765
5081.0,3.2885,-7.2955,-3.8144,-2.2691,-5.6672,0.1765
5086.0,3.2885,-7.2955,-3.8144,-2.2691,-5.6672,0.1765
5091.0,4.4858,-7.1239,1.4317,-2.2691,-5.6672,0.1765
5096.0,4.4858,-7.1239,1.4317,-2.2691,-5.6672,0.1765
5101.0,4.4858,-7.1239,1.4317,-1.6814,-6.2108,1.2479
5106.0,4.4858,-7.1239,1.4317,-1.6814,-6.2108,1.2479
5111.0,4.4858,-7.1239,1.4317,-1.6814,-6.2108,1.2479
5117.0,3.9111,-9.86,1.0099,-1.6814,-6.2108,1.2479
5121.0,3.9111,-9.86,1.0099,-1.6814,-6.2108,1.2479
5126.0,3.9111,-9.86,1.0099,-1.6814,-6.2108,1.2479
5131.0,3.9111,-9.86,1.0099,0.4701,-2.7759,-0.3263
5136.0,3.9111,-9.86,1.0099,0.4701,-2.7759,-0.3263
5141.0,5.2185,-8.5444,2.7823,0.4701,-2.7759,-0.3263
5146.0,5.2185,-8.5444,2.7823,0.4701,-2.7759,-0.3263
5151.0,5.2185,-8.5444,2.7823,0.4701,-2.7759,-0.3263
5156.0,5.2185,-8.5444,2.7823,0.4701,-2.7759,-0.3263
5161.0,5.2185,-8.5444,2.7823,0.4701,-2.7759,-0.3263
5166.0,5.2185,-8.5444,2.7823,0.4701,-2.7759,-0.3263
5171.0,4.5001,-8.1726,1.8677,0.263,0.2216,-2.5401
5176.0,4.5001,-8.1726,1.8677,0.263,0.2216,-2.5401
5182.0,4.5001,-8.1726,1.8677,0.263,0.2216,-2.5401
5186.0,4.5001,-8.1726,1.8677,0.263,0.2216,-2.5401
5191.0,4.5001,-8.1726,1.8677,0.263,0.2216,-2.5401
5196.0,2.7042,-8.6397,-2.4638,0.263,0.2216,-2.5401
5201.0,2.7042,-8.6397,-2.4638,-0.3772,-0.9861,-5.3372
5206.0,2.7042,-8.6397,-2.4638,-0.3772,-0.9861,-5.3372
5211.0,2.7042,-8.6397,-2.4638,-0.3772,-0.9861,-5.3372
5216.0,2.7042,-8.6397,-2.4638,-0.3772,-0.9861,-5.3372
5221.0,2.7042,-8.6397,-2.4638,-0.3772,-0.9861,-5.3372
5226.0,3.3842,-6.6758,-2.3406,-0.3772,-0.9861,-5.3372
5231.0,3.3842,-6.6758,-2.3406,-0.3772,-0.9861,-5.3372
5237.0,3.3842,-6.6758,-2.3406,0.1548,1.447,-5.5572
5241.0,3.3842,-6.6758,-2.3406,0.1548,1.447,-5.5572
5246.0,3.3842,-6.6758,-2.3406,0.1548,1.447,-5.5572
5251.0,2.6802,-4.6547,-5.5347,0.1548,1.447,-5.5572
5256.0,2.6802,-4.6547,-5.5347,0.1548,1.447,-5.5572
5261.0,2.6802,-4.6547,-5.5347,0.1548,1.447,-5.5572
5266.0,2.6802,-4.6547,-5.5347,0.0724,-0.1559,-2.3275
5271.0,2.6802,-4.6547,-5.5347,0.0724,-0.1559,-2.3275
5276.0,2.6802,-4.6547,-5.5347,0.0724,-0.1559,-2.3275
5282.0,1.3967,-3.1293,-4.6722,0.0724,-0.1559,-2.3275
5286.0,1.3967,-3.1293,-4.6722,0.0724,-0.1559,-2.3275
5291.0,1.3967,-3.1293,-4.6722,0.0724,-0.1559,-2.3275
5296.0,1.3967,-3.1293,-4.6722,0.4414,-0.713,-0.68
5301.0,1.3967,-3.1293,-4.6722,0.4414,-0.713,-0.68
5306.0,1.9044,-2.9339,-3.7386,0.4414,-0.713,-0.68
5311.0,1.9044,-2.9339,-3.7386,0.4414,-0.713,-0.68
5316.0,1.9044,-2.9339,-3.7386,0.4414,-0.713,-0.68
5321.0,1.9044,-2.9339,-3.7386,0.4414,-0.713,-0.68
5326.0,1.9044,-2.9339,-3.7386,0.668,0.1159,-0.1827
5331.0,2.1821,-2.4667,-3.3074,0.668,0.1159,-0.1827
5336.0,2.1821,-2.4667,-3.3074,0.668,0.1159,-0.1827
5344.0,2.1821,-2.4667,-3.3074,0.668,0.1159,-0.1827
5346.0,2.1821,-2.4667,-3.3074,0.668,0.1159,-0.1827
5351.0,2.1821,-2.4667,-3.3074,0.668,0.1159,-0.1827
5356.0,2.1821,-2.4667,-3.3074,0.6228,0.6572,0.6761
5361.0,1.4781,-1.5086,-3.7955,0.6228,0.6572,0.6761
5367.0,1.4781,-1.5086,-3.7955,0.6228,0.6572,0.6761
5371.0,1.4781,-1.5086,-3.7955,0.6228,0.6572,0.6761
5376.0,1.4781,-1.5086,-3.7955,0.6228,0.6572,0.6761
5381.0,1.4781,-1.5086,-3.7955,0.6228,0.6572,0.6761
5386.0,0.9896,0.5793,-4.3215,0.6228,0.6572,0.6761
5391.0,0.9896,0.5793,-4.3215,0.6973,0.9266,2.1404
5396.0,0.9896,0.5793,-4.3215,0.6973,0.9266,2.1404
5401.0,0.9896,0.5793,-4.3215,0.6973,0.9266,2.1404
5407.0,0.9896,0.5793,-4.3215,0.6973,0.9266,2.1404
5411.0,-0.7632,0.6413,-6.8616,0.6973,0.9266,2.1404
5416.0,-0.7632,0.6413,-6.8616,0.6973,0.9266,2.1404
5422.0,-0.7632,0.6413,-6.8616,0.9826,1.6956,3.0213
5426.0,-0.7632,0.6413,-6.8616,0.9826,1.6956,3.0213
5431.0,-0.7632,0.6413,-6.8616,0.9826,1.6956,3.0213
5436.0,-0.7632,0.6413,-6.8616,0.9826,1.6956,3.0213
5441.0,-2.6789,-1.8232,-17.3681,0.9826,1.6956,3.0213
5447.0,-2.6789,-1.8232,-17.3681,0.9826,1.6956,3.0213
5451.0,-2.6789,-1.8232,-17.3681,0.4603,-0.14,2.0775
5457.0,-2.6789,-1.8232,-17.3681,0.4603,-0.14,2.0775
5461.0,-2.6789,-1.8232,-17.3681,0.4603,-0.14,2.0775
5467.0,-2.6789,-1.8232,-17.3681,0.4603,-0.14,2.0775
5471.0,15.5393,-7.6006,-4.9518,0.4603,-0.14,2.0775
5476.0,15.5393,-7.6006,-4.9518,0.4603,-0.14,2.0775
5481.0,15.5393,-7.6006,-4.9518,0.4603,-0.14,2.0775
5486.0,15.5393,-7.6006,-4.9518,-2.3961,0.3353,1.9278
5492.0,15.5393,-7.6006,-4.9518,-2.3961,0.3353,1.9278
5496.0,22.6657,-27.7165,-11.1221,-2.3961,0.3353,1.9278
5501.0,22.6657,-27.7165,-11.1221,-2.3961,0.3353,1.9278
5506.0,22.6657,-27.7165,-11.1221,-2.3961,0.3353,1.9278
5512.0,22.6657,-27.7165,-11.1221,-2.3961,0.3353,1.9278
5517.0,22.6657,-27.7165,-11.1221,0.2392,-2.4387,2.6279
5522.0,22.6657,-27.7165,-11.1221,0.2392,-2.4387,2.6279
5527.0,6.1189,-8.9305,0.8535,0.2392,-2.4387,2.6279
5532.0,6.1189,-8.9305,0.8535,0.2392,-2.4387,2.6279
5536.0,6.1189,-8.9305,0.8535,0.2392,-2.4387,2.6279
5541.0,6.1189,-8.9305,0.8535,0.2392,-2.4387,2.6279
5546.0,6.1189,-8.9305,0.8535,0.5293,-1.9775,4.6572
5551.0,0.8842,-0.5505,0.1427,0.5293,-1.9775,4.6572
5556.0,0.8842,-0.5505,0.1427,0.5293,-1.9775,4.6572
5561.0,0.8842,-0.5505,0.1427,0.5293,-1.9775,4.6572
5566.0,0.8842,-0.5505,0.1427,0.5293,-1.9775,4.6572
5572.0,0.8842,-0.5505,0.1427,0.5293,-1.9775,4.6572
5576.0,0.8842,-0.5505,0.1427,-0.0431,-1.2005,4.2607
5581.0,0.3526,-0.0023,-0.6061,-0.0431,-1.2005,4.2607
5586.0,0.3526,-0.0023,-0.6061,-0.0431,-1.2005,4.2607
5591.0,0.3526,-0.0023,-0.6061,-0.0431,-1.2005,4.2607
5596.0,0.3526,-0.0023,-0.6061,-0.0431,-1.2005,4.2607
5601.0,0.3526,-0.0023,-0.6061,-0.0431,-1.2005,4.2607
5606.0,3.5614,-3.4248,1.8582,-0.5446,-1.1009,3.7048
5612.0,3.5614,-3.4248,1.8582,-0.5446,-1.1009,3.7048
5617.0,3.5614,-3.4248,1.8582,-0.5446,-1.1009,3.7048
5622.0,3.5614,-3.4248,1.8582,-0.5446,-1.1009,3.7048
5626.0,3.5614,-3.4248,1.8582,-0.5446,-1.1009,3.7048
5632.0,3.5614,-11.0517,2.8629,-0.5446,-1.1009,3.7048
5636.0,8.9397,-11.0517,2.8629,-0.9502,-0.5914,3.2974
5641.0,8.9397,-11.0517,2.8629,-0.9502,-0.5914,3.2974
5646.0,8.9397,-11.0517,2.8629,-0.9502,-0.5914,3.2974
5651.0,8.9397,-11.0517,2.8629,-0.9502,-0.5914,3.2974
5657.0,8.9397,-11.0517,2.8629,-0.9502,-0.5914,3.2974
5661.0,8.9397,-11.0517,2.8629,-0.9502,-0.5914,3.2974
5666.0,8.7578,-18.9456,-0.3739,-0.9502,-0.5914,3.2974
5671.0,8.7578,-18.9456,-0.3739,-0.0486,-0.7124,1.006
5676.0,8.7578,-18.9456,-0.3739,-0.0486,-0.7124,1.006
5681.0,8.7578,-18.9456,-0.3739,-0.0486,-0.7124,1.006
5686.0,8.7578,-18.9456,-0.3739,-0.0486,-0.7124,1.006
5691.0,0.2377,-10.5512,-3.3737,-0.0486,-0.7124,1.006
5696.0,0.2377,-10.5512,-3.3737,-0.0486,-0.7124,1.006
5701.0,0.2377,-10.5512,-3.3737,-0.5574,3.4006,-0.2524
5706.0,0.2377,-10.5512,-3.3737,-0.5574,3.4006,-0.2524
5711.0,0.2377,-10.5512,-3.3737,-0.5574,3.4006,-0.2524
5716.0,0.2377,-10.5512,-3.3737,-0.5574,3.4006,-0.2524
5722.0,-0.2077,-8.7351,-3.9898,-0.5574,3.4006,-0.2524
5726.0,-0.2077,-8.7351,-3.9898,-0.5574,3.4006,-0.2524
5731.0,-0.2077,-8.7351,-3.9898,-0.9007,1.444,0.0457
5736.0,-0.2077,-8.7351,-3.9898,-0.9007,1.444,0.0457
5741.0,-0.2077,-8.7351,-3.9898,-0.9007,1.444,0.0457
5746.0,-0.2077,-8.7351,-3.9898,-0.9007,1.444,0.0457
5751.0,-0.2077,-8.7351,-3.9898,-0.9007,1.444,0.0457
5756.0,0.1898,-8.3299,-0.5397,-0.9007,1.444,0.0457
5761.0,0.1898,-8.3299,-0.5397,-0.9007,1.444,0.0457
5766.0,0.1898,-8.3299,-0.5397,-0.0705,1.0671,1.2717
5772.0,0.1898,-8.3299,-0.5397,-0.0705,1.0671,1.2717
5776.0,0.1898,-8.3299,-0.5397,-0.0705,1.0671,1.2717
5782.0,0.1898,-8.3299,-0.5397,-0.0705,1.0671,1.2717
5786.0,1.0327,-6.8331,-1.3075,-0.0705,1.0671,1.2717
5791.0,1.0327,-6.8331,-1.3075,-0.0705,1.0671,1.2717
5796.0,1.0327,-6.8331,-1.3075,-0.0705,1.0671,1.2717
5801.0,1.0327,-6.8331,-1.3075,0.1775,0.4959,1.1655
5806.0,1.0327,-6.8331,-1.3075,0.1775,0.4959,1.1655
5811.0,1.095,-7.0333,0.337,0.1775,0.4959,1.1655
5816.0,1.095,-7.0333,0.337,0.1775,0.4959,1.1655
5821.0,1.095,-7.0333,0.337,0.1775,0.4959,1.1655
5826.0,1.095,-7.0333,0.337,0.1775,0.4959,1.1655
5831.0,1.095,-7.0333,0.337,0.2813,0.1141,0.6853
5836.0,1.095,-7.0333,0.337,0.2813,0.1141,0.6853
5841.0,1.5835,-7.6816,0.7114,0.2813,0.1141,0.6853
5846.0,1.5835,-7.6816,0.7114,0.2813,0.1141,0.6853
5851.0,1.5835,-7.6816,0.7114,0.2813,0.1141,0.6853
5857.0,1.5835,-7.6816,0.7114,0.2813,0.1141,0.6853
5863.0,1.5835,-7.6816,0.7114,0.5214,0.0506,0.6242
5867.0,2.4168,-9.6837,0.9815,0.5214,0.0506,0.6242
5872.0,2.4168,-9.6837,0.9815,0.5214,0.0506,0.6242
5876.0,2.4168,-9.6837,0.9815,0.5214,0.0506,0.6242
5881.0,2.4168,-9.6837,0.9815,0.5214,0.0506,0.6242
5886.0,2.4168,-9.6837,0.9815,0.5214,0.0506,0.6242
5891.0,3.6716,-10.0269,1.0431,0.5214,0.0506,0.6242
5896.0,3.6716,-10.0269,1.0431,0.7908,0.5753,1.2754
5901.0,3.6716,-10.0269,1.0431,0.7908,0.5753,1.2754
5906.0,3.6716,-10.0269,1.0431,0.7908,0.5753,1.2754
5912.0,3.6716,-10.0269,1.0431,0.7908,0.5753,1.2754
5916.0,3.6716,-10.0269,1.0431,0.7908,0.5753,1.2754
5921.0,5.2329,-9.2451,0.0242,0.7908,0.5753,1.2754
5926.0,5.2329,-9.2451,0.0242,0.7908,0.5753,1.2754
5932.0,5.2329,-9.2451,0.0242,0.5782,1.6102,1.5943
5936.0,5.2329,-9.2451,0.0242,0.5782,1.6102,1.5943
5941.0,5.2329,-9.2451,0.0242,0.5782,1.6102,1.5943
5946.0,5.2329,-9.2451,0.0242,0.5782,1.6102,1.5943
5951.0,7.1964,-9.0926,-7.6151,0.5782,1.6102,1.5943
5956.0,7.1964,-9.0926,-7.6151,0.5782,1.6102,1.5943
5961.0,7.1964,-9.0926,-7.6151,-0.4596,0.937,-1.5706
5966.0,7.1964,-9.0926,-7.6151,-0.4596,0.937,-1.5706
5972.0,7.1964,-9.0926,-7.6151,-0.4596,0.937,-1.5706
5976.0,4.299,-11.1471,0.5218,-0.4596,0.937,-1.5706
5981.0,4.299,-11.1471,0.5218,-0.4596,0.937,-1.5706
5986.0,4.299,-11.1471,0.5218,-0.4596,0.937,-1.5706
5991.0,4.299,-11.1471,0.5218,0.1402,-1.0068,0.3927
5996.0,4.299,-11.1471,0.5218,0.1402,-1.0068,0.3927
6002.0,3.2645,-10.7705,1.5549,0.1402,-1.0068,0.3927
6007.0,3.2645,-10.7705,1.5549,0.1402,-1.0068,0.3927
6011.0,3.2645,-10.7705,1.5549,0.1402,-1.0068,0.3927
6016.0,3.2645,-10.7705,1.5549,0.1402,-1.0068,0.3927
6021.0,3.2645,-10.7705,1.5549,0.1072,-1.3807,1.8686
6026.0,3.2645,-10.7705,1.5549,0.1072,-1.3807,1.8686
6031.0,2.7856,-11.0612,1.7729,0.1072,-1.3807,1.8686
6036.0,2.7856,-11.0612,1.7729,0.1072,-1.3807,1.8686
6041.0,2.7856,-11.0612,1.7729,0.1072,-1.3807,1.8686
6046.0,2.7856,-11.0612,1.7729,0.1072,-1.3807,1.8686
6051.0,2.7856,-11.0612,1.7729,0.1555,0.5772,1.4049
6056.0,2.3689,-11.7524,1.1189,0.1555,0.5772,1.4049
6061.0,2.3689,-11.7524,1.1189,0.1555,0.5772,1.4049
6066.0,2.3689,-11.7524,1.1189,0.1555,0.5772,1.4049
6071.0,2.3689,-11.7524,1.1189,0.1555,0.5772,1.4049
6076.0,2.3689,-11.7524,1.1189,0.1555,0.5772,1.4049
6082.0,4.002,-13.1253,-0.4639,0.3895,2.0958,0.3628
6086.0,4.002,-13.1253,-0.4639,0.3895,2.0958,0.3628
6091.0,4.002,-13.1253,-0.4639,0.3895,2.0958,0.3628
6096.0,4.002,-13.1253,-0.4639,0.3895,2.0958,0.3628
6101.0,4.002,-13.1253,-0.4639,0.3895,2.0958,0.3628
6106.0,4.002,-13.1253,-0.4639,0.3895,2.0958,0.3628
6111.0,6.6026,-15.6422,-6.8948,0.3162,2.5179,-1.2841
6116.0,6.6026,-15.6422,-6.8948,0.3162,2.5179,-1.2841
6121.0,6.6026,-15.6422,-6.8948,0.3162,2.5179,-1.2841
6127.0,6.6026,-15.6422,-6.8948,0.3162,2.5179,-1.2841
6132.0,6.6026,-15.6422,-6.8948,0.3162,2.5179,-1.2841
6137.0,6.435,-13.416,-2.061,0.3162,2.5179,-1.2841
6141.0,6.435,-13.416,-2.061,0.3162,2.5179,-1.2841
6146.0,6.435,-13.416,-2.061,-0.2177,-0.9641,-1.1516
6152.0,6.435,-13.416,-2.061,-0.2177,-0.9641,-1.1516
6156.0,6.435,-13.416,-2.061,-0.2177,-0.9641,-1.1516
6161.0,6.435,-13.416,-2.061,-0.2177,-0.9641,-1.1516
6166.0,4.639,-11.7858,0.683,-0.2177,-0.9641,-1.1516
6171.0,4.639,-11.7858,0.683,-0.2177,-0.9641,-1.1516
6176.0,4.639,-11.7858,0.683,-0.2177,-0.9641,-1.1516
6181.0,4.639,-11.7858,0.683,-0.2177,-0.9641,-1.1516
6186.0,4.639,-11.7858,0.683,-0.2177,-0.9641,-1.1516
6191.0,4.639,-11.7858,0.683,-0.2177,-0.9641,-1.1516
6196.0,4.5863,-9.7647,0.6308,-0.0791,-1.9079,-0.4546
6201.0,4.5863,-9.7647,0.6308,-0.0791,-1.9079,-0.4546
6206.0,4.5863,-9.7647,0.6308,-0.0791,-1.9079,-0.4546
6211.0,4.5863,-9.7647,0.6308,-0.0791,-1.9079,-0.4546
6216.0,4.5863,-9.7647,0.6308,-0.0791,-1.9079,-0.4546
6221.0,6.2769,-8.2202,-0.4544,-0.0791,-1.9079,-0.4546
6226.0,6.2769,-8.2202,-0.4544,-0.4083,-1.1094,-1.0887
6231.0,6.2769,-8.2202,-0.4544,-0.4083,-1.1094,-1.0887
6236.0,6.2769,-8.2202,-0.4544,-0.4083,-1.1094,-1.0887
6241.0,6.2769,-8.2202,-0.4544,-0.4083,-1.1094,-1.0887
6247.0,4.2176,-10.5131,-2.1652,-0.4083,-1.1094,-1.0887
6251.0,4.2176,-10.5131,-2.1652,-0.4083,-1.1094,-1.0887
6256.0,4.2176,-10.5131,-2.1652,-0.2947,0.5008,-3.2731
6261.0,4.2176,-10.5131,-2.1652,-0.2947,0.5008,-3.2731
6267.0,4.2176,-10.5131,-2.1652,-0.2947,0.5008,-3.2731
6271.0,4.2176,-10.5131,-2.1652,-0.2947,0.5008,-3.2731
6276.0,2.6275,-12.253,-4.113,-0.2947,0.5008,-3.2731
6281.0,2.6275,-12.253,-4.113,-0.2947,0.5008,-3.2731
6286.0,2.6275,-12.253,-4.113,-0.6062,2.2345,-5.0569
6291.0,2.6275,-12.253,-4.113,-0.6062,2.2345,-5.0569
6296.0,2.6275,-12.253,-4.113,-0.6062,2.2345,-5.0569
6301.0,1.4302,-13.5543,-8.5961,-0.6062,2.2345,-5.0569
6306.0,1.4302,-13.5543,-8.5961,-0.6062,2.2345,-5.0569
6311.0,1.4302,-13.5543,-8.5961,-0.6062,2.2345,-5.0569
6316.0,1.4302,-13.5543,-8.5961,-0.58,-2.8541,-3.2902
6321.0,1.4302,-13.5543,-8.5961,-0.58,-2.8541,-3.2902
6326.0,1.4302,-13.5543,-8.5961,-0.58,-2.8541,-3.2902
6332.0,6.0997,-8.2631,-0.0706,-0.58,-2.8541,-3.2902
6336.0,6.0997,-8.2631,-0.0706,-0.58,-2.8541,-3.2902
6341.0,6.0997,-8.2631,-0.0706,-0.58,-2.8541,-3.2902
6347.0,6.0997,-8.2631,-0.0706,-1.4083,-6.1467,-0.2157
6351.0,6.0997,-8.2631,-0.0706,-1.4083,-6.1467,-0.2157
6356.0,5.9369,-8.0153,3.5359,-1.4083,-6.1467,-0.2157
6361.0,5.9369,-8.0153,3.5359,-1.4083,-6.1467,-0.2157
6367.0,5.9369,-8.0153,3.5359,-1.4083,-6.1467,-0.2157
6371.0,5.9369,-8.0153,3.5359,-1.4083,-6.1467,-0.2157
6377.0,5.9369,-8.0153,3.5359,-0.3876,-4.1113,0.0457
6381.0,5.003,-8.2298,5.4267,-0.3876,-4.1113,0.0457
6386.0,5.003,-8.2298,5.4267,-0.3876,-4.1113,0.0457
6391.0,5.003,-8.2298,5.4267,-0.3876,-4.1113,0.0457
6396.0,5.003,-8.2298,5.4267,-0.3876,-4.1113,0.0457
6401.0,5.003,-8.2298,5.4267,-0.3876,-4.1113,0.0457
6406.0,5.003,-8.2298,5.4267,-0.3876,-4.1113,0.0457
6412.0,3.7674,-6.242,3.5975,0.6705,0.8979,-0.9885
6416.0,3.7674,-6.242,3.5975,0.6705,0.8979,-0.9885
6421.0,3.7674,-6.242,3.5975,0.6705,0.8979,-0.9885
6426.0,3.7674,-6.242,3.5975,0.6705,0.8979,-0.9885
6431.0,3.7674,-6.242,3.5975,0.6705,0.8979,-0.9885
6436.0,3.7674,-6.242,3.5975,0.6705,0.8979,-0.9885
6441.0,1.7032,-10.2175,-9.416,0.7914,1.543,-4.5584
6446.0,1.7032,-10.2175,-9.416,0.7914,1.543,-4.5584
6451.0,1.7032,-10.2175,-9.416,0.7914,1.543,-4.5584
6456.0,1.7032,-10.2175,-9.416,0.7914,1.543,-4.5584
6461.0,1.7032,-10.2175,-9.416,0.7914,1.543,-4.5584
6466.0,1.7032,-10.2175,-9.416,0.7914,1.543,-4.5584
6471.0,2.9197,-9.7551,-5.0276,0.7914,1.543,-4.5584
6476.0,2.9197,-9.7551,-5.0276,-0.09,1.0408,-5.201
6481.0,2.9197,-9.7551,-5.0276,-0.09,1.0408,-5.201
6487.0,2.9197,-9.7551,-5.0276,-0.09,1.0408,-5.201
6491.0,2.9197,-9.7551,-5.0276,-0.09,1.0408,-5.201
6496.0,2.9197,-9.7551,-5.0276,-0.09,1.0408,-5.201
6502.0,4.0547,-8.1487,-3.6154,0.1012,-0.7221,-3.209
6506.0,4.0547,-8.1487,-3.6154,0.1012,-0.7221,-3.209
6511.0,4.0547,-8.1487,-3.6154,0.1012,-0.7221,-3.209
6516.0,4.0547,-8.1487,-3.6154,0.1012,-0.7221,-3.209
6521.0,4.0547,-8.1487,-3.6154,0.1012,-0.7221,-3.209
6526.0,3.0681,-5.5794,-1.3454,0.1012,-0.7221,-3.209
6531.0,3.0681,-5.5794,-1.3454,0.1012,-0.7221,-3.209
6536.0,3.0681,-5.5794,-1.3454,0.6393,-1.1974,-1.8468
6541.0,3.0681,-5.5794,-1.3454,0.6393,-1.1974,-1.8468
6546.0,3.0681,-5.5794,-1.3454,0.6393,-1.1974,-1.8468
6551.0,1.3919,-3.6298,-1.9615,0.6393,-1.1974,-1.8468
6557.0,1.3919,-3.6298,-1.9615,0.6393,-1.1974,-1.8468
6562.0,1.3919,-3.6298,-1.9615,0.6393,-1.1974,-1.8468
6566.0,1.3919,-3.6298,-1.9615,0.7206,-0.2108,-1.6012
6571.0,1.3919,-3.6298,-1.9615,0.7206,-0.2108,-1.6012
6577.0,0.7023,-2.7003,-2.7055,0.7206,-0.2108,-1.6012
6581.0,0.7023,-2.7003,-2.7055,0.7206,-0.2108,-1.6012
6586.0,0.7023,-2.7003,-2.7055,0.7206,-0.2108,-1.6012
6591.0,0.7023,-2.7003,-2.7055,0.7206,-0.2108,-1.6012
6596.0,0.7023,-2.7003,-2.7055,0.3589,-0.0428,-1.1076
6602.0,0.7023,-2.7003,-2.7055,0.3589,-0.0428,-1.1076
6607.0,0.9561,-2.6335,-2.7434,0.3589,-0.0428,-1.1076
6611.0,0.9561,-2.6335,-2.7434,0.3589,-0.0428,-1.1076
6616.0,0.9561,-2.6335,-2.7434,0.3589,-0.0428,-1.1076
6621.0,0.9561,-2.6335,-2.7434,0.3589,-0.0428,-1.1076
6626.0,0.9561,-2.6335,-2.7434,0.348,0.2656,0.1496
6631.0,1.5547,-2.6955,-3.2694,0.348,0.2656,0.1496
6636.0,1.5547,-2.6955,-3.2694,0.348,0.2656,0.1496
6641.0,1.5547,-2.6955,-3.2694,0.348,0.2656,0.1496
6647.0,1.5547,-2.6955,-3.2694,0.348,0.2656,0.1496
6651.0,1.5547,-2.6955,-3.2694,0.348,0.2656,0.1496
6656.0,0.5777,-1.3942,-4.7954,0.3553,0.7464,1.5228
6661.0,0.5777,-1.3942,-4.7954,0.3553,0.7464,1.5228
6667.0,0.5777,-1.3942,-4.7954,0.3553,0.7464,1.5228
6672.0,0.5777,-1.3942,-4.7954,0.3553,0.7464,1.5228
6677.0,0.5777,-1.3942,-4.7954,0.3553,0.7464,1.5228
6682.0,0.5777,-1.3942,-4.7954,0.3553,0.7464,1.5228
6686.0,-1.3811,-1.5753,-6.6958,0.2423,1.2669,2.5411
6691.0,-1.3811,-1.5753,-6.6958,0.2423,1.2669,2.5411
6696.0,-1.3811,-1.5753,-6.6958,0.2423,1.2669,2.5411
6701.0,-1.3811,-1.5753,-6.6958,0.2423,1.2669,2.5411
6706.0,-1.3811,-1.5753,-6.6958,0.2423,1.2669,2.5411
6711.0,-2.3006,-2.5954,-11.1315,0.2423,1.2669,2.5411
6716.0,-2.3006,-2.5954,-11.1315,-0.0418,0.9119,2.8753
6721.0,-2.3006,-2.5954,-11.1315,-0.0418,0.9119,2.8753
6726.0,-2.3006,-2.5954,-11.1315,-0.0418,0.9119,2.8753
6731.0,-2.3006,-2.5954,-11.1315,-0.0418,0.9119,2.8753
6737.0,-2.3006,-2.5954,-11.1315,-0.0418,0.9119,2.8753
6741.0,5.8172,-4.5689,-3.876,-0.0418,0.9119,2.8753
6746.0,5.8172,-4.5689,-3.876,-1.0137,-1.1681,3.2656
6751.0,5.8172,-4.5689,-3.876,-1.0137,-1.1681,3.2656
6757.0,5.8172,-4.5689,-3.876,-1.0137,-1.1681,3.2656
6762.0,5.8172,-4.5689,-3.876,-1.0137,-1.1681,3.2656
6767.0,17.4119,-22.0249,-11.1789,-1.0137,-1.1681,3.2656
6771.0,17.4119,-22.0249,-11.1789,-1.0137,-1.1681,3.2656
6777.0,17.4119,-22.0249,-11.1789,-1.0137,-1.1681,3.2656
6781.0,17.4119,-22.0249,-11.1789,-2.0008,0.6212,1.7616
6786.0,17.4119,-22.0249,-11.1789,-2.0008,0.6212,1.7616
6791.0,17.704,-28.6079,-8.3118,-2.0008,0.6212,1.7616
6796.0,17.704,-28.6079,-8.3118,-2.0008,0.6212,1.7616
6802.0,17.704,-28.6079,-8.3118,-2.0008,0.6212,1.7616
6806.0,17.704,-28.6079,-8.3118,-2.0008,0.6212,1.7616
6811.0,17.704,-28.6079,-8.3118,0.2514,-1.8046,3.436
6816.0,17.704,-28.6079,-8.3118,0.2514,-1.8046,3.436
6821.0,2.2588,-4.0636,-0.2933,0.2514,-1.8046,3.436
6826.0,2.2588,-4.0636,-0.2933,0.2514,-1.8046,3.436
6831.0,2.2588,-4.0636,-0.2933,0.2514,-1.8046,3.436
6837.0,2.2588,-4.0636,-0.2933,0.2514,-1.8046,3.436
6842.0,2.2588,-4.0636,-0.2933,0.2514,-1.8046,3.436
6846.0,-1.9701,1.3706,-5.3262,-0.2006,-0.3513,3.334
6851.0,-1.9701,1.3706,-5.3262,-0.2006,-0.3513,3.334
6857.0,-1.9701,1.3706,-5.3262,-0.2006,-0.3513,3.334
6861.0,-1.9701,1.3706,-5.3262,-0.2006,-0.3513,3.334
6866.0,-1.9701,1.3706,-5.3262,-0.2006,-0.3513,3.334
6871.0,1.2866,-1.5992,0.1,-0.2006,-0.3513,3.334
6876.0,1.2866,-1.5992,0.1,-0.379,-0.5309,1.9596
6881.0,1.2866,-1.5992,0.1,-0.379,-0.5309,1.9596
6887.0,1.2866,-1.5992,0.1,-0.379,-0.5309,1.9596
6891.0,1.2866,-1.5992,0.1,-0.379,-0.5309,1.9596
6896.0,1.2866,-1.5992,0.1,-0.379,-0.5309,1.9596
6902.0,5.6591,-7.0762,2.5786,-0.379,-0.5309,1.9596
6906.0,5.6591,-7.0762,2.5786,-0.379,-0.5309,1.9596
6916.0,5.6591,-7.0762,2.5786,-0.7626,-0.0508,1.6688
6917.0,5.6591,-7.0762,2.5786,-0.7626,-0.0508,1.6688
6922.0,5.6591,-7.0762,2.5786,-0.7626,-0.0508,1.6688
6926.0,9.1505,-16.4716,1.3748,-0.7626,-0.0508,1.6688
6931.0,9.1505,-16.4716,1.3748,-0.7626,-0.0508,1.6688
6936.0,9.1505,-16.4716,1.3748,-0.7626,-0.0508,1.6688
6941.0,9.1505,-16.4716,1.3748,-0.7626,-0.0508,1.6688
6946.0,9.1505,-16.4716,1.3748,-0.6453,1.8936,1.0494
6951.0,1.459,-16.0378,-4.3736,-0.6453,1.8936,1.0494
6956.0,1.459,-16.0378,-4.3736,-0.6453,1.8936,1.0494
6961.0,1.459,-16.0378,-4.3736,-0.6453,1.8936,1.0494
6966.0,1.459,-16.0378,-4.3736,-0.6453,1.8936,1.0494
6971.0,1.459,-16.0378,-4.3736,-0.6453,1.8936,1.0494
6976.0,1.459,-16.0378,-4.3736,0.0658,2.1661,0.8875
6981.0,0.64,-8.8256,-3.5253,0.0658,2.1661,0.8875
6986.0,0.64,-8.8256,-3.5253,0.0658,2.1661,0.8875
6991.0,0.64,-8.8256,-3.5253,0.0658,2.1661,0.8875
6996.0,0.64,-8.8256,-3.5253,0.0658,2.1661,0.8875
7001.0,0.64,-8.8256,-3.5253,0.0658,2.1661,0.8875
7006.0,0.7885,-6.9952,-0.4307,-0.2501,0.2424,1.2186
7011.0,0.7885,-6.9952,-0.4307,-0.2501,0.2424,1.2186
7016.0,0.7885,-6.9952,-0.4307,-0.2501,0.2424,1.2186
7021.0,0.7885,-6.9952,-0.4307,-0.2501,0.2424,1.2186
7026.0,0.7885,-6.9952,-0.4307,-0.2501,0.2424,1.2186
7031.0,1.0327,-6.2658,0.555,-0.2501,0.2424,1.2186
7036.0,1.0327,-6.2658,0.555,-0.1511,0.7384,1.2057
7041.0,1.0327,-6.2658,0.555,-0.1511,0.7384,1.2057
7046.0,1.0327,-6.2658,0.555,-0.1511,0.7384,1.2057
7051.0,1.0327,-6.2658,0.555,-0.1511,0.7384,1.2057
7056.0,1.0327,-6.2658,0.555,-0.1511,0.7384,1.2057
7061.0,1.7463,-6.8236,-0.407,-0.1511,0.7384,1.2057
7066.0,1.7463,-6.8236,-0.407,0.2857,1.7238,0.8496
7071.0,1.7463,-6.8236,-0.407,0.2857,1.7238,0.8496
7076.0,1.7463,-6.8236,-0.407,0.2857,1.7238,0.8496
7081.0,1.7463,-6.8236,-0.407,0.2857,1.7238,0.8496
7086.0,3.2022,-7.5767,-1.7577,0.2857,1.7238,0.8496
7092.0,3.2022,-7.5767,-1.7577,0.2857,1.7238,0.8496
7096.0,3.2022,-7.5767,-1.7577,0.2032,1.6639,0.59
7101.0,3.2022,-7.5767,-1.7577,0.2032,1.6639,0.59
7106.0,3.2022,-7.5767,-1.7577,0.2032,1.6639,0.59
7112.0,2.7377,-8.8304,-0.7056,0.2032,1.6639,0.59
7116.0,2.7377,-8.8304,-0.7056,0.2032,1.6639,0.59
7121.0,2.7377,-8.8304,-0.7056,0.2032,1.6639,0.59
7126.0,2.7377,-8.8304,-0.7056,0.2032,1.6639,0.59
7131.0,2.7377,-8.8304,-0.7056,0.0474,0.5772,0.5338
7136.0,2.7377,-8.8304,-0.7056,0.0474,0.5772,0.5338
7141.0,1.6889,-8.8828,0.5692,0.0474,0.5772,0.5338
7147.0,1.6889,-8.8828,0.5692,0.0474,0.5772,0.5338
7151.0,1.6889,-8.8828,0.5692,0.0474,0.5772,0.5338
7156.0,1.6889,-8.8828,0.5692,0.0474,0.5772,0.5338
7161.0,1.6889,-8.8828,0.5692,0.4799,-0.0532,0.6315
7166.0,1.6889,-8.8828,0.5692,0.4799,-0.0532,0.6315
7171.0,1.9475,-8.6254,0.3796,0.4799,-0.0532,0.6315
7176.0,1.9475,-8.6254,0.3796,0.4799,-0.0532,0.6315
7181.0,1.9475,-8.6254,0.3796,0.4799,-0.0532,0.6315
7186.0,1.9475,-8.6254,0.3796,0.4799,-0.0532,0.6315
7191.0,1.9475,-8.6254,0.3796,0.7121,-0.9268,1.0817
7196.0,3.2453,-9.779,0.3133,0.7121,-0.9268,1.0817
7201.0,3.2453,-9.779,0.3133,0.7121,-0.9268,1.0817
7207.0,3.2453,-9.779,0.3133,0.7121,-0.9268,1.0817
7212.0,3.2453,-9.779,0.3133,0.7121,-0.9268,1.0817
7216.0,3.2453,-9.779,0.3133,0.7121,-0.9268,1.0817
7221.0,4.8066,-11.5475,0.6024,0.7121,-0.9268,1.0817
7226.0,4.8066,-11.5475,0.6024,0.7768,-1.6916,1.6193
7231.0,4.8066,-11.5475,0.6024,0.7768,-1.6916,1.6193
7236.0,4.8066,-11.5475,0.6024,0.7768,-1.6916,1.6193
7241.0,4.8066,-11.5475,0.6024,0.7768,-1.6916,1.6193
7247.0,7.8957,-11.414,3.1425,0.7768,-1.6916,1.6193
7251.0,7.8957,-11.414,3.1425,0.7768,-1.6916,1.6193
7256.0,7.8957,-11.414,3.1425,0.4915,4.127,1.6889
7262.0,7.8957,-11.414,3.1425,0.4915,4.127,1.6889
7266.0,7.8957,-11.414,3.1425,0.4915,4.127,1.6889
7271.0,7.8957,-11.414,3.1425,0.4915,4.127,1.6889
7277.0,4.8593,-8.4204,-5.6342,0.4915,4.127,1.6889
7281.0,4.8593,-8.4204,-5.6342,0.4915,4.127,1.6889
7286.0,4.8593,-8.4204,-5.6342,-0.4455,4.2601,-1.3348
7291.0,4.8593,-8.4204,-5.6342,-0.4455,4.2601,-1.3348
7296.0,4.8593,-8.4204,-5.6342,-0.4455,4.2601,-1.3348
7301.0,3.4034,-10.5846,-7.255,-0.4455,4.2601,-1.3348
7306.0,3.4034,-10.5846,-7.255,-0.4455,4.2601,-1.3348
7311.0,3.4034,-10.5846,-7.255,-0.4455,4.2601,-1.3348
7317.0,3.4034,-10.5846,-7.255,-0.8341,0.3811,-0.537
7322.0,3.4034,-10.5846,-7.255,-0.8341,0.3811,-0.537
7326.0,3.4034,-10.5846,-7.255,-0.8341,0.3811,-0.537
7331.0,2.6898,-14.4314,-1.1606,-0.8341,0.3811,-0.537
7336.0,2.6898,-14.4314,-1.1606,-0.8341,0.3811,-0.537
7341.0,2.6898,-14.4314,-1.1606,-0.8341,0.3811,-0.537
7347.0,2.6898,-14.4314,-1.1606,0.1653,-0.7991,1.7849
7352.0,2.6898,-14.4314,-1.1606,0.1653,-0.7991,1.7849
7356.0,2.5509,-14.0691,-0.2601,0.1653,-0.7991,1.7849
7361.0,2.5509,-14.0691,-0.2601,0.1653,-0.7991,1.7849
7367.0,2.5509,-14.0691,-0.2601,0.1653,-0.7991,1.7849
7371.0,2.5509,-14.0691,-0.2601,0.1653,-0.7991,1.7849
7376.0,2.5509,-14.0691,-0.2601,0.1653,-0.7991,1.7849
7382.0,2.5509,-14.0691,-0.2601,0.5783,-0.2493,0.9327
7386.0,4.0116,-13.3541,-0.8383,0.5783,-0.2493,0.9327
7391.0,4.0116,-13.3541,-0.8383,0.5783,-0.2493,0.9327
7397.0,4.0116,-13.3541,-0.8383,0.5783,-0.2493,0.9327
7402.0,4.0116,-13.3541,-0.8383,0.5783,-0.2493,0.9327
7407.0,4.0116,-13.3541,-0.8383,0.5783,-0.2493,0.9327
7411.0,4.1649,-15.3418,0.1616,0.0682,0.3597,-1.2628
7417.0,4.1649,-15.3418,0.1616,0.0682,0.3597,-1.2628
7421.0,4.1649,-15.3418,0.1616,0.0682,0.3597,-1.2628
7426.0,4.1649,-15.3418,0.1616,0.0682,0.3597,-1.2628
7432.0,4.1649,-15.3418,0.1616,0.0682,0.3597,-1.2628
7436.0,4.1649,-15.3418,0.1616,0.0682,0.3597,-1.2628
7441.0,3.9494,-12.7058,1.427,0.0682,0.3597,-1.2628
7446.0,3.9494,-12.7058,1.427,0.3131,0.0885,-1.4155
7451.0,3.9494,-12.7058,1.427,0.3131,0.0885,-1.4155
7456.0,3.9494,-12.7058,1.427,0.3131,0.0885,-1.4155
7462.0,3.9494,-12.7058,1.427,0.3131,0.0885,-1.4155
7466.0,4.5959,-7.7483,0.3559,0.3131,0.0885,-1.4155
7471.0,4.5959,-7.7483,0.3559,0.3131,0.0885,-1.4155
7477.0,4.5959,-7.7483,0.3559,-0.0564,0.6529,-0.6348
7481.0,4.5959,-7.7483,0.3559,-0.0564,0.6529,-0.6348
7486.0,4.5959,-7.7483,0.3559,-0.0564,0.6529,-0.6348
7491.0,4.5959,-7.7483,0.3559,-0.0564,0.6529,-0.6348
7497.0,5.6112,-7.0095,-0.6819,-0.0564,0.6529,-0.6348
7501.0,5.6112,-7.0095,-0.6819,-0.0564,0.6529,-0.6348
7508.0,5.6112,-7.0095,-0.6819,-0.8835,0.0329,-1.3923
7511.0,5.6112,-7.0095,-0.6819,-0.8835,0.0329,-1.3923
7516.0,5.6112,-7.0095,-0.6819,-0.8835,0.0329,-1.3923
7522.0,5.6112,-7.0095,-0.6819,-0.8835,0.0329,-1.3923
7528.0,4.6055,-11.495,-1.6724,-0.8835,0.0329,-1.3923
7533.0,4.6055,-11.495,-1.6724,-0.8835,0.0329,-1.3923
7536.0,4.6055,-11.495,-1.6724,-0.8835,0.0329,-1.3923
7541.0,4.6055,-11.495,-1.6724,-0.2189,0.5424,-3.1632
7546.0,4.6055,-11.495,-1.6724,-0.2189,0.5424,-3.1632
7551.0,3.5423,-10.4797,-2.7624,-0.2189,0.5424,-3.1632
7556.0,3.5423,-10.4797,-2.7624,-0.2189,0.5424,-3.1632
7561.0,3.5423,-10.4797,-2.7624,-0.2189,0.5424,-3.1632
7566.0,3.5423,-10.4797,-2.7624,-0.2189,0.5424,-3.1632
7571.0,3.5423,-10.4797,-2.7624,-0.385,2.1478,-5.3501
7577.0,2.9053,-9.6932,-4.0845,-0.385,2.1478,-5.3501
7581.0,2.9053,-9.6932,-4.0845,-0.385,2.1478,-5.3501
7587.0,2.9053,-9.6932,-4.0845,-0.385,2.1478,-5.3501
7591.0,2.9053,-9.6932,-4.0845,-0.385,2.1478,-5.3501
7596.0,2.9053,-9.6932,-4.0845,-0.385,2.1478,-5.3501
7601.0,2.9053,-9.6932,-4.0845,-0.7576,1.744,-5.5297
7606.0,2.958,-9.002,-5.075,-0.7576,1.744,-5.5297
7611.0,2.958,-9.002,-5.075,-0.7576,1.744,-5.5297
7616.0,2.958,-9.002,-5.075,-0.7576,1.744,-5.5297
7621.0,2.958,-9.002,-5.075,-0.7576,1.744,-5.5297
7627.0,2.958,-9.002,-5.075,-0.7576,1.744,-5.5297
7631.0,2.958,-9.002,-5.075,-1.4785,-3.73,-1.4393
7639.0,5.8555,-6.6949,0.3654,-1.4785,-3.73,-1.4393
7641.0,5.8555,-6.6949,0.3654,-1.4785,-3.73,-1.4393
7647.0,5.8555,-6.6949,0.3654,-1.4785,-3.73,-1.4393
7652.0,5.8555,-6.6949,0.3654,-1.4785,-3.73,-1.4393
7656.0,5.8555,-6.6949,0.3654,-1.4785,-3.73,-1.4393
7661.0,5.8555,-6.6949,0.3654,-1.4785,-3.73,-1.4393
7666.0,4.481,-6.9523,2.7966,-1.7131,-6.091,0.841
7671.0,4.481,-6.9523,2.7966,-1.7131,-6.091,0.841
7676.0,4.481,-6.9523,2.7966,-1.7131,-6.091,0.841
7681.0,4.481,-6.9523,2.7966,-1.7131,-6.091,0.841
7687.0,3.6285,-9.4405,2.6733,-1.7131,-6.091,0.841
7691.0,3.6285,-9.4405,2.6733,-1.7131,-6.091,0.841
7697.0,3.6285,-9.4405,2.6733,0.3553,-1.7404,-0.5352
7701.0,3.6285,-9.4405,2.6733,0.3553,-1.7404,-0.5352
7706.0,3.6285,-9.4405,2.6733,0.3553,-1.7404,-0.5352
7711.0,3.6285,-9.4405,2.6733,0.3553,-1.7404,-0.5352
7716.0,4.3277,-7.5481,0.8583,0.3553,-1.7404,-0.5352
7721.0,4.3277,-7.5481,0.8583,0.3553,-1.7404,-0.5352
7727.0,4.3277,-7.5481,0.8583,0.3883,1.648,-3.4002
7731.0,4.3277,-7.5481,0.8583,0.3883,1.648,-3.4002
7736.0,4.3277,-7.5481,0.8583,0.3883,1.648,-3.4002
7741.0,3.2022,-9.6932,-4.8855,0.3883,1.648,-3.4002
7746.0,3.2022,-9.6932,-4.8855,0.3883,1.648,-3.4002
7752.0,3.2022,-9.6932,-4.8855,0.3883,1.648,-3.4002
7756.0,3.2022,-9.6932,-4.8855,-0.4082,-0.7887,-6.358
7761.0,3.2022,-9.6932,-4.8855,-0.4082,-0.7887,-6.358
7766.0,4.4235,-10.9278,-2.1937,-0.4082,-0.7887,-6.358
7771.0,4.4235,-10.9278,-2.1937,-0.4082,-0.7887,-6.358
7776.0,4.4235,-10.9278,-2.1937,-0.4082,-0.7887,-6.358
7781.0,4.4235,-10.9278,-2.1937,-0.4082,-0.7887,-6.358
7787.0,4.4235,-10.9278,-2.1937,-0.2861,2.2076,-6.1314
7791.0,4.4235,-10.9278,-2.1937,-0.2861,2.2076,-6.1314
7796.0,4.7587,-8.492,-6.5062,-0.2861,2.2076,-6.1314
7801.0,4.7587,-8.492,-6.5062,-0.2861,2.2076,-6.1314
7806.0,4.7587,-8.492,-6.5062,-0.2861,2.2076,-6.1314
7811.0,4.7587,-8.492,-6.5062,-0.2861,2.2076,-6.1314
7816.0,4.7587,-8.492,-6.5062,-0.2861,2.2076,-6.1314
7821.0,3.4944,-3.9349,-3.0088,-0.0271,-1.3434,-2.2212
7826.0,3.4944,-3.9349,-3.0088,-0.0271,-1.3434,-2.2212
7831.0,3.4944,-3.9349,-3.0088,-0.0271,-1.3434,-2.2212
7836.0,3.4944,-3.9349,-3.0088,-0.0271,-1.3434,-2.2212
7841.0,3.4944,-3.9349,-3.0088,-0.0271,-1.3434,-2.2212
7846.0,3.4944,-3.9349,-3.0088,-0.0271,-1.3434,-2.2212
7851.0,2.0768,-2.2522,-2.6913,0.1617,-0.837,-1.1131
7856.0,2.0768,-2.2522,-2.6913,0.1617,-0.837,-1.1131
7861.0,2.0768,-2.2522,-2.6913,0.1617,-0.837,-1.1131
7866.0,2.0768,-2.2522,-2.6913,0.1617,-0.837,-1.1131
7871.0,2.0768,-2.2522,-2.6913,0.1617,-0.837,-1.1131
7877.0,1.5069,-1.4609,-3.4874,0.1617,-0.837,-1.1131
7881.0,1.5069,-1.4609,-3.4874,0.009,0.3634,-0.9097
7886.0,1.5069,-1.4609,-3.4874,0.009,0.3634,-0.9097
7891.0,1.5069,-1.4609,-3.4874,0.009,0.3634,-0.9097
7896.0,1.5069,-1.4609,-3.4874,0.009,0.3634,-0.9097
7901.0,1.5069,-1.4609,-3.4874,0.009,0.3634,-0.9097
7906.0,1.5979,-1.1749,-5.3309,0.009,0.3634,-0.9097
7911.0,1.5979,-1.1749,-5.3309,0.009,0.3634,-0.9097
7916.0,1.5979,-1.1749,-5.3309,-0.0515,0.2015,0.5191
7921.0,1.5979,-1.1749,-5.3309,-0.0515,0.2015,0.5191
7926.0,1.5979,-1.1749,-5.3309,-0.0515,0.2015,0.5191
7931.0,2.7664,0.0597,-6.1697,-0.0515,0.2015,0.5191
7936.0,2.7664,0.0597,-6.1697,-0.0515,0.2015,0.5191
7941.0,2.7664,0.0597,-6.1697,0.0322,-0.3141,1.3548
7946.0,2.7664,0.0597,-6.1697,0.0322,-0.3141,1.3548
7951.0,2.7664,0.0597,-6.1697,0.0322,-0.3141,1.3548
7956.0,2.7664,0.0597,-6.1697,0.0322,-0.3141,1.3548
7961.0,0.5586,-0.4789,-5.1603,0.0322,-0.3141,1.3548
7966.0,0.5586,-0.4789,-5.1603,0.0322,-0.3141,1.3548
7972.0,0.5586,-0.4789,-5.1603,0.0322,-0.3141,1.3548
7976.0,0.5586,-0.4789,-5.1603,0.5582,-0.0715,1.5106
7981.0,0.5586,-0.4789,-5.1603,0.5582,-0.0715,1.5106
7986.0,-2.2958,-4.5975,-4.4495,0.5582,-0.0715,1.5106
7991.0,-2.2958,-4.5975,-4.4495,0.5582,-0.0715,1.5106
7996.0,-2.2958,-4.5975,-4.4495,0.5582,-0.0715,1.5106
8001.0,-2.2958,-4.5975,-4.4495,0.5582,-0.0715,1.5106
8006.0,-2.2958,-4.5975,-4.4495,0.8593,2.0787,1.4922
8011.0,-0.3897,-5.3268,-10.397,0.8593,2.0787,1.4922
8016.0,-0.3897,-5.3268,-10.397,0.8593,2.0787,1.4922
8021.0,-0.3897,-5.3268,-10.397,0.8593,2.0787,1.4922
8026.0,-0.3897,-5.3268,-10.397,0.8593,2.0787,1.4922
8031.0,-0.3897,-5.3268,-10.397,0.8593,2.0787,1.4922
8036.0,-0.3897,-5.3268,-10.397,0.1263,1.4819,0.9663
8041.0,7.8717,-7.1,-15.6763,0.1263,1.4819,0.9663
8046.0,7.8717,-7.1,-15.6763,0.1263,1.4819,0.9663
8051.0,7.8717,-7.1,-15.6763,0.1263,1.4819,0.9663
8056.0,7.8717,-7.1,-15.6763,0.1263,1.4819,0.9663
8061.0,7.8717,-7.1,-15.6763,0.1263,1.4819,0.9663
8066.0,14.8448,-6.4136,0.0242,0.1263,1.4819,0.9663
8071.0,14.8448,-6.4136,0.0242,-1.8633,-1.865,4.0255
8076.0,14.8448,-6.4136,0.0242,-1.8633,-1.865,4.0255
8081.0,14.8448,-6.4136,0.0242,-1.8633,-1.865,4.0255
8086.0,14.8448,-6.4136,0.0242,-1.8633,-1.865,4.0255
8091.0,14.8448,-6.4136,0.0242,-1.8633,-1.865,4.0255
8096.0,15.8841,-13.9833,-15.3825,-1.8633,-1.865,4.0255
8101.0,15.8841,-13.9833,-15.3825,-1.8633,-1.865,4.0255
8106.0,15.8841,-13.9833,-15.3825,0.1098,1.3213,0.8722
8111.0,15.8841,-13.9833,-15.3825,0.1098,1.3213,0.8722
8116.0,15.8841,-13.9833,-15.3825,0.1098,1.3213,0.8722
8121.0,4.4666,-5.2505,-4.331,0.1098,1.3213,0.8722
8126.0,4.4666,-5.2505,-4.331,0.1098,1.3213,0.8722
8131.0,4.4666,-5.2505,-4.331,0.1098,1.3213,0.8722
8136.0,4.4666,-5.2505,-4.331,-0.3587,-0.545,2.7488
8141.0,4.4666,-5.2505,-4.331,-0.3587,-0.545,2.7488
8147.0,4.4666,-5.2505,-4.331,-0.3587,-0.545,2.7488
8151.0,1.8852,-5.8845,-0.5066,-0.3587,-0.545,2.7488
8156.0,1.8852,-5.8845,-0.5066,-0.3587,-0.545,2.7488
8162.0,1.8852,-5.8845,-0.5066,-0.3587,-0.545,2.7488
8166.0,1.8852,-5.8845,-0.5066,-0.498,-2.4668,5.0047
8171.0,1.8852,-5.8845,-0.5066,-0.498,-2.4668,5.0047
8176.0,3.5279,-9.7695,-0.6819,-0.498,-2.4668,5.0047
8182.0,3.5279,-9.7695,-0.6819,-0.498,-2.4668,5.0047
8187.0,3.5279,-9.7695,-0.6819,-0.498,-2.4668,5.0047
8191.0,3.5279,-9.7695,-0.6819,-0.498,-2.4668,5.0047
8197.0,3.5279,-9.7695,-0.6819,0.5918,-3.1668,5.0432
8201.0,3.5279,-9.7695,-0.6819,0.5918,-3.1668,5.0432
8206.0,5.5968,-14.336,-1.8951,0.5918,-3.1668,5.0432
8211.0,5.5968,-14.336,-1.8951,0.5918,-3.1668,5.0432
8216.0,5.5968,-14.336,-1.8951,0.5918,-3.1668,5.0432
8221.0,5.5968,-14.336,-1.8951,0.5918,-3.1668,5.0432
8226.0,5.5968,-14.336,-1.8951,0.5918,-3.1668,5.0432
8231.0,5.5968,-14.336,-1.8951,0.5918,-3.1668,5.0432
8236.0,5.5968,-14.336,-1.8951,0.5918,-3.1668,5.0432
8241.0,5.8076,-14.6602,-1.4307,0.6241,-1.5737,3.8783
8246.0,5.8076,-14.6602,-1.4307,0.6241,-1.5737,3.8783
8251.0,5.8076,-14.6602,-1.4307,0.6241,-1.5737,3.8783
8257.0,5.8076,-14.6602,-1.4307,0.6241,-1.5737,3.8783
8262.0,5.8076,-14.6602,-1.4307,0.6241,-1.5737,3.8783
8266.0,1.344,-9.0735,1.0621,0.6241,-1.5737,3.8783
8271.0,1.344,-9.0735,1.0621,-0.6159,0.675,1.163
8276.0,1.344,-9.0735,1.0621,-0.6159,0.675,1.163
8281.0,1.344,-9.0735,1.0621,-0.6159,0.675,1.163
8286.0,1.344,-9.0735,1.0621,-0.6159,0.675,1.163
8291.0,1.344,-9.0735,1.0621,-0.6159,0.675,1.163
8296.0,-0.8255,-7.6864,-0.9094,-0.6159,0.675,1.163
8301.0,-0.8255,-7.6864,-0.9094,-0.7179,1.9285,0.9559
8306.0,-0.8255,-7.6864,-0.9094,-0.7179,1.9285,0.9559
8311.0,-0.8255,-7.6864,-0.9094,-0.7179,1.9285,0.9559
8317.0,-0.8255,-7.6864,-0.9094,-0.7179,1.9285,0.9559
8321.0,-0.2891,-7.0238,-1.8477,-0.7179,1.9285,0.9559
8326.0,-0.2891,-7.0238,-1.8477,-0.7179,1.9285,0.9559
8332.0,-0.2891,-7.0238,-1.8477,-0.2268,1.7922,0.6749
8336.0,-0.2891,-7.0238,-1.8477,-0.2268,1.7922,0.6749
8341.0,-0.2891,-7.0238,-1.8477,-0.2268,1.7922,0.6749
8346.0,1.7176,-7.2859,-1.4023,-0.2268,1.7922,0.6749
8352.0,1.7176,-7.2859,-1.4023,-0.2268,1.7922,0.6749
8356.0,1.7176,-7.2859,-1.4023,-0.2268,1.7922,0.6749
8361.0,1.7176,-7.2859,-1.4023,0.1031,1.8429,0.5967
8366.0,1.7176,-7.2859,-1.4023,0.1031,1.8429,0.5967
8372.0,1.7176,-6.9952,-1.497,0.1031,1.8429,0.5967
8376.0,2.139,-6.9952,-1.497,0.1031,1.8429,0.5967
8381.0,2.139,-6.9952,-1.497,0.1031,1.8429,0.5967
8386.0,2.139,-6.9952,-1.497,0.1031,1.8429,0.5967
8391.0,2.139,-6.9952,-1.497,0.213,1.1795,0.5778
8396.0,2.139,-6.9952,-1.497,0.213,1.1795,0.5778
8401.0,2.2779,-6.6806,-1.0989,0.213,1.1795,0.5778
8406.0,2.2779,-6.6806,-1.0989,0.213,1.1795,0.5778
8411.0,2.2779,-6.6806,-1.0989,0.213,1.1795,0.5778
8416.0,2.2779,-6.6806,-1.0989,0.213,1.1795,0.5778
8421.0,2.2779,-6.6806,-1.0989,0.213,1.1795,0.5778
8426.0,2.2827,-7.1858,-0.3691,0.1917,0.4129,0.8459
8432.0,2.2827,-7.1858,-0.3691,0.1917,0.4129,0.8459
8436.0,2.2827,-7.1858,-0.3691,0.1917,0.4129,0.8459
8441.0,2.2827,-7.1858,-0.3691,0.1917,0.4129,0.8459
8446.0,2.2827,-7.1858,-0.3691,0.1917,0.4129,0.8459
8451.0,2.2827,-7.1858,-0.3691,0.1917,0.4129,0.8459
8457.0,2.2731,-8.4729,0.2659,0.2613,-0.5297,1.0512
8461.0,2.2731,-8.4729,0.2659,0.2613,-0.5297,1.0512
8466.0,2.2731,-8.4729,0.2659,0.2613,-0.5297,1.0512
8471.0,2.2731,-8.4729,0.2659,0.2613,-0.5297,1.0512
8476.0,2.2731,-8.4729,0.2659,0.2613,-0.5297,1.0512
8481.0,2.5653,-9.6694,0.9057,0.2613,-0.5297,1.0512
8486.0,2.5653,-9.6694,0.9057,0.2613,-0.5297,1.0512
8491.0,2.5653,-9.6694,0.9057,0.4287,-0.5932,1.254
8496.0,2.5653,-9.6694,0.9057,0.4287,-0.5932,1.254
8502.0,2.5653,-9.6694,0.9057,0.4287,-0.5932,1.254
8506.0,2.5653,-9.6694,0.9057,0.4287,-0.5932,1.254
8511.0,3.0825,-9.8314,0.8346,0.4287,-0.5932,1.254
8517.0,3.0825,-9.8314,0.8346,0.4287,-0.5932,1.254
8521.0,3.0825,-9.8314,0.8346,0.3725,0.3188,1.5442
8526.0,3.0825,-9.8314,0.8346,0.3725,0.3188,1.5442
8531.0,3.0825,-9.8314,0.8346,0.3725,0.3188,1.5442
8536.0,3.0825,-9.8314,0.8346,0.3725,0.3188,1.5442
8542.0,4.3038,-10.3558,-0.1416,0.3725,0.3188,1.5442
8546.0,4.3038,-10.3558,-0.1416,0.3725,0.3188,1.5442
8551.0,4.3038,-10.3558,-0.1416,0.0829,2.1032,0.7903
8556.0,4.3038,-10.3558,-0.1416,0.0829,2.1032,0.7903
8561.0,4.3038,-10.3558,-0.1416,0.0829,2.1032,0.7903
8566.0,4.8737,-11.8001,-3.4353,0.0829,2.1032,0.7903
8571.0,4.8737,-11.8001,-3.4353,0.0829,2.1032,0.7903
8576.0,4.8737,-11.8001,-3.4353,0.0829,2.1032,0.7903
8581.0,4.8737,-11.8001,-3.4353,0.0829,2.1032,0.7903
8586.0,4.8737,-11.8001,-3.4353,-0.0368,1.9608,-0.5994
8591.0,4.8737,-11.8001,-3.4353,-0.0368,1.9608,-0.5994
8596.0,3.1639,-12.4198,-3.985,-0.0368,1.9608,-0.5994
8601.0,3.1639,-12.4198,-3.985,-0.0368,1.9608,-0.5994
8606.0,3.1639,-12.4198,-3.985,-0.0368,1.9608,-0.5994
8611.0,3.1639,-12.4198,-3.985,-0.0368,1.9608,-0.5994
8616.0,3.1639,-12.4198,-3.985,0.3377,0.0842,1.0011
8621.0,2.6227,-11.9002,-3.8239,0.3377,0.0842,1.0011
8626.0,2.6227,-11.9002,-3.8239,0.3377,0.0842,1.0011
8631.0,2.6227,-11.9002,-3.8239,0.3377,0.0842,1.0011
8636.0,2.6227,-11.9002,-3.8239,0.3377,0.0842,1.0011
8642.0,2.6227,-11.9002,-3.8239,0.3377,0.0842,1.0011
8646.0,2.4312,-12.3006,-1.2411,0.3377,0.0842,1.0011
8651.0,2.4312,-12.3006,-1.2411,0.4134,-0.6757,1.3902
8656.0,2.4312,-12.3006,-1.2411,0.4134,-0.6757,1.3902
8661.0,2.4312,-12.3006,-1.2411,0.4134,-0.6757,1.3902
8666.0,2.4312,-12.3006,-1.2411,0.4134,-0.6757,1.3902
8671.0,2.4312,-12.3006,-1.2411,0.4134,-0.6757,1.3902
8676.0,3.6333,-11.5856,-2.1463,0.4134,-0.6757,1.3902
8681.0,3.6333,-11.5856,-2.1463,0.5625,0.8655,0.6199
8686.0,3.6333,-11.5856,-2.1463,0.5625,0.8655,0.6199
8692.0,3.6333,-11.5856,-2.1463,0.5625,0.8655,0.6199
8696.0,3.6333,-11.5856,-2.1463,0.5625,0.8655,0.6199
8701.0,4.9264,-14.0453,-4.7243,0.5625,0.8655,0.6199
8707.0,4.9264,-14.0453,-4.7243,0.5625,0.8655,0.6199
8711.0,4.9264,-14.0453,-4.7243,0.0536,1.0384,-0.9641
8716.0,4.9264,-14.0453,-4.7243,0.0536,1.0384,-0.9641
8721.0,4.9264,-14.0453,-4.7243,0.0536,1.0384,-0.9641
8726.0,3.9733,-15.1845,-1.17,0.0536,1.0384,-0.9641
8731.0,3.9733,-15.1845,-1.17,0.0536,1.0384,-0.9641
8736.0,3.9733,-15.1845,-1.17,0.0536,1.0384,-0.9641
8741.0,3.9733,-15.1845,-1.17,-0.118,-1.1192,-1.1846
8746.0,3.9733,-15.1845,-1.17,-0.118,-1.1192,-1.1846
8751.0,2.6898,-14.4171,1.0763,-0.118,-1.1192,-1.1846
8756.0,2.6898,-14.4171,1.0763,-0.118,-1.1192,-1.1846
8761.0,2.6898,-14.4171,1.0763,-0.118,-1.1192,-1.1846
8766.0,2.6898,-14.4171,1.0763,-0.118,-1.1192,-1.1846
8771.0,2.6898,-14.4171,1.0763,-0.118,-1.1192,-1.1846
8776.0,2.6898,-14.4171,1.0763,0.1776,-1.7514,-1.3269
8781.0,2.5653,-10.0936,1.1616,0.1776,-1.7514,-1.3269
8786.0,2.5653,-10.0936,1.1616,0.1776,-1.7514,-1.3269
8791.0,2.5653,-10.0936,1.1616,0.1776,-1.7514,-1.3269
8796.0,2.5653,-10.0936,1.1616,0.1776,-1.7514,-1.3269
8801.0,2.5653,-10.0936,1.1616,0.1776,-1.7514,-1.3269
8806.0,3.7674,-8.2584,0.882,0.235,-2.2151,-1.3281
8812.0,3.7674,-8.2584,0.882,0.235,-2.2151,-1.3281
8816.0,3.7674,-8.2584,0.882,0.235,-2.2151,-1.3281
8821.0,3.7674,-8.2584,0.882,0.235,-2.2151,-1.3281
8826.0,3.7674,-8.2584,0.882,0.235,-2.2151,-1.3281
8831.0,3.7674,-8.2584,0.882,0.235,-2.2151,-1.3281
8836.0,8.4081,-9.3881,1.1,-0.0246,-1.1583,-1.859
8841.0,8.4081,-9.3881,1.1,-0.0246,-1.1583,-1.859
8846.0,8.4081,-9.3881,1.1,-0.0246,-1.1583,-1.859
8852.0,8.4081,-9.3881,1.1,-0.0246,-1.1583,-1.859
8856.0,8.4081,-9.3881,1.1,-0.0246,-1.1583,-1.859
8862.0,5.4867,-11.6142,-1.7766,-0.0246,-1.1583,-1.859
8866.0,5.4867,-11.6142,-1.7766,-0.3911,2.4966,-4.2224
8871.0,5.4867,-11.6142,-1.7766,-0.3911,2.4966,-4.2224
8876.0,5.4867,-11.6142,-1.7766,-0.3911,2.4966,-4.2224
8881.0,5.4867,-11.6142,-1.7766,-0.3911,2.4966,-4.2224
8886.0,5.4867,-11.6142,-1.7766,-0.3911,2.4966,-4.2224
8891.0,2.2444,-10.6465,-5.7622,-0.3911,2.4966,-4.2224
8896.0,2.2444,-10.6465,-5.7622,-0.1492,1.5167,-6.308
8901.0,2.2444,-10.6465,-5.7622,-0.1492,1.5167,-6.308
8906.0,2.2444,-10.6465,-5.7622,-0.1492,1.5167,-6.308
8911.0,2.2444,-10.6465,-5.7622,-0.1492,1.5167,-6.308
8916.0,2.3593,-8.573,-1.7435,-0.1492,1.5167,-6.308
8921.0,2.3593,-8.573,-1.7435,-0.1492,1.5167,-6.308
8926.0,2.3593,-8.573,-1.7435,-0.1492,1.5167,-6.308
8931.0,2.3593,-8.573,-1.7435,-1.5078,-1.1393,-2.5749
8936.0,2.3593,-8.573,-1.7435,-1.5078,-1.1393,-2.5749
8941.0,2.3593,-8.573,-1.7435,-1.5078,-1.1393,-2.5749
8946.0,2.8239,-7.224,-0.0564,-1.5078,-1.1393,-2.5749
8951.0,2.8239,-7.224,-0.0564,-1.5078,-1.1393,-2.5749
8956.0,2.8239,-7.224,-0.0564,-1.5078,-1.1393,-2.5749
8961.0,2.8239,-7.224,-0.0564,-0.9696,-4.1668,-0.1638
8966.0,2.8239,-7.224,-0.0564,-0.9696,-4.1668,-0.1638
8971.0,2.8239,-7.224,-0.0564,-0.9696,-4.1668,-0.1638
8976.0,1.9523,-9.1831,-2.7007,-0.9696,-4.1668,-0.1638
8981.0,1.9523,-9.1831,-2.7007,-0.9696,-4.1668,-0.1638
8986.0,1.9523,-9.1831,-2.7007,-0.9696,-4.1668,-0.1638
8991.0,1.9523,-9.1831,-2.7007,-0.9696,-4.1668,-0.1638
8996.0,1.9523,-9.1831,-2.7007,0.29,-3.1021,-1.6305
9001.0,3.0298,-9.3023,0.6261,0.29,-3.1021,-1.6305
9006.0,3.0298,-9.3023,0.6261,0.29,-3.1021,-1.6305
9011.0,3.0298,-9.3023,0.6261,0.29,-3.1021,-1.6305
9016.0,3.0298,-9.3023,0.6261,0.29,-3.1021,-1.6305
9021.0,3.0298,-9.3023,0.6261,0.29,-3.1021,-1.6305
9026.0,1.4973,-10.6465,-1.9046,0.3462,0.386,-3.352
9031.0,1.4973,-10.6465,-1.9046,0.3462,0.386,-3.352
9036.0,1.4973,-10.6465,-1.9046,0.3462,0.386,-3.352
9041.0,1.4973,-10.6465,-1.9046,0.3462,0.386,-3.352
9046.0,1.4973,-10.6465,-1.9046,0.3462,0.386,-3.352
9051.0,2.6754,-9.5883,-5.4778,0.3462,0.386,-3.352
9056.0,2.6754,-9.5883,-5.4778,0.2717,1.1624,-4.8345
9061.0,2.6754,-9.5883,-5.4778,0.2717,1.1624,-4.8345
9066.0,2.6754,-9.5883,-5.4778,0.2717,1.1624,-4.8345
9071.0,2.6754,-9.5883,-5.4778,0.2717,1.1624,-4.8345
9076.0,2.6754,-9.5883,-5.4778,0.2717,1.1624,-4.8345
9081.0,3.7195,-7.8866,-4.2504,0.2717,1.1624,-4.8345
9086.0,3.7195,-7.8866,-4.2504,0.1458,0.441,-4.3037
9091.0,3.7195,-7.8866,-4.2504,0.1458,0.441,-4.3037
9097.0,3.7195,-7.8866,-4.2504,0.1458,0.441,-4.3037
9101.0,3.7195,-7.8866,-4.2504,0.1458,0.441,-4.3037
9106.0,2.436,-5.894,-1.1606,0.1458,0.441,-4.3037
9111.0,2.436,-5.894,-1.1606,0.1458,0.441,-4.3037
9116.0,2.436,-5.894,-1.1606,0.3658,-0.3702,-2.4668
9121.0,2.436,-5.894,-1.1606,0.3658,-0.3702,-2.4668
9126.0,2.436,-5.894,-1.1606,0.3658,-0.3702,-2.4668
9131.0,2.436,-5.894,-1.1606,0.3658,-0.3702,-2.4668
9136.0,1.2818,-3.7061,-1.606,0.3658,-0.3702,-2.4668
9142.0,1.2818,-3.7061,-1.606,0.3658,-0.3702,-2.4668
9146.0,1.2818,-3.7061,-1.606,0.3658,-0.3702,-2.4668
9151.0,1.2818,-3.7061,-1.606,0.7653,-0.1216,-1.6586
9156.0,1.2818,-3.7061,-1.606,0.7653,-0.1216,-1.6586
9161.0,1.3967,-3.1579,-2.7339,0.7653,-0.1216,-1.6586
9166.0,1.3967,-3.1579,-2.7339,0.7653,-0.1216,-1.6586
9171.0,1.3967,-3.1579,-2.7339,0.7653,-0.1216,-1.6586
9176.0,1.3967,-3.1579,-2.7339,0.7653,-0.1216,-1.6586
9181.0,1.3967,-3.1579,-2.7339,0.5252,0.4642,-1.2054
9186.0,2.2492,-4.0779,-3.5348,0.5252,0.4642,-1.2054
9191.0,2.2492,-4.0779,-3.5348,0.5252,0.4642,-1.2054
9196.0,2.2492,-4.0779,-3.5348,0.5252,0.4642,-1.2054
9201.0,2.2492,-4.0779,-3.5348,0.5252,0.4642,-1.2054
9207.0,2.2492,-4.0779,-3.5348,0.5252,0.4642,-1.2054
9211.0,2.2492,-4.0779,-3.5348,0.433,0.8619,-0.1364
9216.0,2.9772,-4.0064,-4.1319,0.433,0.8619,-0.1364
9221.0,2.9772,-4.0064,-4.1319,0.433,0.8619,-0.1364
9227.0,2.9772,-4.0064,-4.1319,0.433,0.8619,-0.1364
9231.0,2.9772,-4.0064,-4.1319,0.433,0.8619,-0.1364
9236.0,2.9772,-4.0064,-4.1319,0.433,0.8619,-0.1364
9241.0,3.1687,-1.4275,-4.1936,0.433,0.8619,-0.1364
9246.0,3.1687,-1.4275,-4.1936,0.4171,0.9627,1.0322
9251.0,3.1687,-1.4275,-4.1936,0.4171,0.9627,1.0322
9256.0,3.1687,-1.4275,-4.1936,0.4171,0.9627,1.0322
9261.0,3.1687,-1.4275,-4.1936,0.4171,0.9627,1.0322
9266.0,1.6409,0.7986,-5.2883,0.4171,0.9627,1.0322
9271.0,1.6409,0.7986,-5.2883,0.6779,1.295,2.1281
9276.0,1.6409,0.7986,-5.2883,0.6779,1.295,2.1281
9281.0,1.6409,0.7986,-5.2883,0.6779,1.295,2.1281
9286.0,1.6409,0.7986,-5.2883,0.6779,1.295,2.1281
9291.0,1.6409,0.7986,-5.2883,0.6779,1.295,2.1281
9296.0,0.1755,1.995,-12.8613,0.6779,1.295,2.1281
9301.0,0.1755,1.995,-12.8613,0.6779,1.295,2.1281
9306.0,0.1755,1.995,-12.8613,0.2912,0.7874,2.8386
9311.0,0.1755,1.995,-12.8613,0.2912,0.7874,2.8386
9316.0,0.1755,1.995,-12.8613,0.2912,0.7874,2.8386
9321.0,0.094,-1.9424,-9.1553,0.2912,0.7874,2.8386
9326.0,0.094,-1.9424,-9.1553,0.2912,0.7874,2.8386
9331.0,0.094,-1.9424,-9.1553,0.2912,0.7874,2.8386
9336.0,0.094,-1.9424,-9.1553,-0.4162,-0.5168,3.0658
9341.0,0.094,-1.9424,-9.1553,-0.4162,-0.5168,3.0658
9346.0,12.3544,-14.2836,-18.5861,-0.4162,-0.5168,3.0658
9351.0,12.3544,-14.2836,-18.5861,-0.4162,-0.5168,3.0658
9356.0,12.3544,-14.2836,-18.5861,-0.4162,-0.5168,3.0658
9361.0,12.3544,-14.2836,-18.5861,-0.4162,-0.5168,3.0658
9367.0,12.3544,-14.2836,-18.5861,-2.1706,-0.2755,0.4666
9371.0,17.1724,-26.6058,-7.0228,-2.1706,-0.2755,0.4666
9376.0,17.1724,-26.6058,-7.0228,-2.1706,-0.2755,0.4666
9382.0,17.1724,-26.6058,-7.0228,-2.1706,-0.2755,0.4666
9386.0,17.1724,-26.6058,-7.0228,-2.1706,-0.2755,0.4666
9391.0,17.1724,-26.6058,-7.0228,-2.1706,-0.2755,0.4666
9396.0,17.1724,-26.6058,-7.0228,-0.6348,-1.7948,3.5075
9401.0,4.4905,-5.117,4.6306,-0.6348,-1.7948,3.5075
9406.0,4.4905,-5.117,4.6306,-0.6348,-1.7948,3.5075
9411.0,4.4905,-5.117,4.6306,-0.6348,-1.7948,3.5075
9416.0,4.4905,-5.117,4.6306,-0.6348,-1.7948,3.5075
9422.0,4.4905,-5.117,4.6306,-0.6348,-1.7948,3.5075
9426.0,-5.4279,1.0035,-7.9042,-0.6348,-1.7948,3.5075
9431.0,-5.4279,1.0035,-7.9042,0.1049,1.0201,3.0365
9436.0,-5.4279,1.0035,-7.9042,0.1049,1.0201,3.0365
9441.0,-5.4279,1.0035,-7.9042,0.1049,1.0201,3.0365
9446.0,-5.4279,1.0035,-7.9042,0.1049,1.0201,3.0365
9451.0,-5.4279,1.0035,-7.9042,0.1049,1.0201,3.0365
9456.0,1.4973,-2.3237,-1.2932,0.1049,1.0201,3.0365
9461.0,1.4973,-2.3237,-1.2932,0.5753,-1.3965,2.246
9467.0,1.4973,-2.3237,-1.2932,0.5753,-1.3965,2.246
9471.0,1.4973,-2.3237,-1.2932,0.5753,-1.3965,2.246
9476.0,1.4973,-2.3237,-1.2932,0.5753,-1.3965,2.246
9481.0,8.1878,-10.5798,0.8678,0.5753,-1.3965,2.246
9486.0,8.1878,-10.5798,0.8678,0.5753,-1.3965,2.246
9491.0,8.1878,-10.5798,0.8678,0.5753,-1.3965,2.246
9496.0,8.1878,-10.5798,0.8678,-1.0282,-0.9713,3.3334
9501.0,8.1878,-10.5798,0.8678,-1.0282,-0.9713,3.3334
9506.0,6.2817,-19.3984,-6.7669,-1.0282,-0.9713,3.3334
9511.0,6.2817,-19.3984,-6.7669,-1.0282,-0.9713,3.3334
9517.0,6.2817,-19.3984,-6.7669,-1.0282,-0.9713,3.3334
9521.0,6.2817,-19.3984,-6.7669,-1.0282,-0.9713,3.3334
9526.0,6.2817,-19.3984,-6.7669,0.0891,0.1337,2.0658
9531.0,6.2817,-19.3984,-6.7669,0.0891,0.1337,2.0658
9536.0,3.1304,-10.27,-0.9757,0.0891,0.1337,2.0658
9541.0,3.1304,-10.27,-0.9757,0.0891,0.1337,2.0658
9546.0,3.1304,-10.27,-0.9757,0.0891,0.1337,2.0658
9551.0,3.1304,-10.27,-0.9757,0.0891,0.1337,2.0658
9556.0,3.1304,-10.27,-0.9757,0.2815,0.1624,1.9174
9561.0,3.1304,-10.27,-0.9757,0.2815,0.1624,1.9174
9566.0,2.3114,-7.4194,0.3796,0.2815,0.1624,1.9174
9571.0,2.3114,-7.4194,0.3796,0.2815,0.1624,1.9174
9576.0,2.3114,-7.4194,0.3796,0.2815,0.1624,1.9174
9581.0,2.3114,-7.4194,0.3796,0.2815,0.1624,1.9174
9586.0,2.3114,-7.4194,0.3796,-0.1791,0.0476,2.0799
9591.0,0.367,-7.2717,-1.189,-0.1791,0.0476,2.0799
9596.0,0.367,-7.2717,-1.189,-0.1791,0.0476,2.0799
9601.0,0.367,-7.2717,-1.189,-0.1791,0.0476,2.0799
9608.0,0.367,-7.2717,-1.189,-0.1791,0.0476,2.0799
9611.0,0.367,-7.2717,-1.189,-0.1791,0.0476,2.0799
9616.0,-0.4184,-6.7616,-1.8145,0.0298,0.069,1.5466
9621.0,-0.4184,-6.7616,-1.8145,0.0298,0.069,1.5466
9626.0,-0.4184,-6.7616,-1.8145,0.0298,0.069,1.5466
9631.0,-0.4184,-6.7616,-1.8145,0.0298,0.069,1.5466
9636.0,-0.4184,-6.7616,-1.8145,0.0298,0.069,1.5466
9641.0,2.4503,-7.2717,-0.8857,0.0298,0.069,1.5466
9646.0,2.4503,-7.2717,-0.8857,0.0579,1.6102,0.8722
9651.0,2.4503,-7.2717,-0.8857,0.0579,1.6102,0.8722
9656.0,2.4503,-7.2717,-0.8857,0.0579,1.6102,0.8722
9661.0,2.4503,-7.2717,-0.8857,0.0579,1.6102,0.8722
9666.0,2.4503,-7.2717,-0.8857,0.0579,1.6102,0.8722
9671.0,3.3842,-8.1916,-0.8857,0.0579,1.6102,0.8722
9676.0,3.3842,-8.1916,-0.8857,0.1196,2.0134,0.5979
9682.0,3.3842,-8.1916,-0.8857,0.1196,2.0134,0.5979
9686.0,3.3842,-8.1916,-0.8857,0.1196,2.0134,0.5979
9691.0,3.3842,-8.1916,-0.8857,0.1196,2.0134,0.5979
9696.0,3.4848,-7.796,-1.6439,0.1196,2.0134,0.5979
9701.0,3.4848,-7.796,-1.6439,0.1196,2.0134,0.5979
9706.0,3.4848,-7.796,-1.6439,-0.0563,1.499,0.4641
9712.0,3.4848,-7.796,-1.6439,-0.0563,1.499,0.4641
9716.0,3.4848,-7.796,-1.6439,-0.0563,1.499,0.4641
9721.0,3.4848,-8.4014,-1.2932,-0.0563,1.499,0.4641
9726.0,2.9532,-8.4014,-1.2932,-0.0563,1.499,0.4641
9731.0,2.9532,-8.4014,-1.2932,-0.0563,1.499,0.4641
9736.0,2.9532,-8.4014,-1.2932,-0.0563,1.499,0.4641
9741.0,2.9532,-8.4014,-1.2932,-0.0429,1.0238,0.6181
9746.0,2.9532,-8.4014,-1.2932,-0.0429,1.0238,0.6181
9751.0,2.4599,-9.1879,-1.0563,-0.0429,1.0238,0.6181
9756.0,2.4599,-9.1879,-1.0563,-0.0429,1.0238,0.6181
9761.0,2.4599,-9.1879,-1.0563,-0.0429,1.0238,0.6181
9766.0,2.4599,-9.1879,-1.0563,-0.0429,1.0238,0.6181
9771.0,2.4599,-9.1879,-1.0563,-0.0679,0.5729,0.7561
9776.0,1.8229,-10.0745,-0.6393,-0.0679,0.5729,0.7561
9781.0,1.8229,-10.0745,-0.6393,-0.0679,0.5729,0.7561
9786.0,1.8229,-10.0745,-0.6393,-0.0679,0.5729,0.7561
9791.0,1.8229,-10.0745,-0.6393,-0.0679,0.5729,0.7561
9796.0,1.8229,-10.0745,-0.6393,-0.0679,0.5729,0.7561
9801.0,1.8229,-10.0745,-0.6393,0.0952,0.5833,1.075
9806.0,1.2866,-10.0555,0.3891,0.0952,0.5833,1.075
9811.0,1.2866,-10.0555,0.3891,0.0952,0.5833,1.075
9816.0,1.2866,-10.0555,0.3891,0.0952,0.5833,1.075
9821.0,1.2866,-10.0555,0.3891,0.0952,0.5833,1.075
9826.0,1.2866,-10.0555,0.3891,0.0952,0.5833,1.075
9832.0,1.3584,-9.064,0.2233,0.4519,0.5864,1.02
9836.0,1.3584,-9.064,0.2233,0.4519,0.5864,1.02
9842.0,1.3584,-9.064,0.2233,0.4519,0.5864,1.02
9846.0,1.3584,-9.064,0.2233,0.4519,0.5864,1.02
9851.0,1.3584,-9.064,0.2233,0.4519,0.5864,1.02
9856.0,1.3584,-9.064,0.2233,0.4519,0.5864,1.02
9861.0,2.7185,-10.351,0.0621,0.4519,0.5864,1.02
9866.0,2.7185,-10.351,0.0621,0.7641,0.0231,0.7885
9872.0,2.7185,-10.351,0.0621,0.7641,0.0231,0.7885
9876.0,2.7185,-10.351,0.0621,0.7641,0.0231,0.7885
9881.0,2.7185,-10.351,0.0621,0.7641,0.0231,0.7885
9886.0,4.4953,-11.638,0.8156,0.7641,0.0231,0.7885
9891.0,4.4953,-11.638,0.8156,0.7641,0.0231,0.7885
9896.0,4.4953,-11.638,0.8156,0.7231,-0.0037,1.1434
9901.0,4.4953,-11.638,0.8156,0.7231,-0.0037,1.1434
9906.0,4.4953,-11.638,0.8156,0.7231,-0.0037,1.1434
9911.0,5.0174,-8.859,-8.6056,0.7231,-0.0037,1.1434
9916.0,5.0174,-8.859,-8.6056,0.7231,-0.0037,1.1434
9921.0,5.0174,-8.859,-8.6056,0.7231,-0.0037,1.1434
9927.0,5.0174,-8.859,-8.6056,0.2815,3.9291,-0.743
9932.0,5.0174,-8.859,-8.6056,0.2815,3.9291,-0.743
9936.0,5.0174,-8.859,-8.6056,0.2815,3.9291,-0.743
9941.0,3.1927,-9.4215,-5.2124,0.2815,3.9291,-0.743
9946.0,3.1927,-9.4215,-5.2124,0.2815,3.9291,-0.743
9951.0,3.1927,-9.4215,-5.2124,0.2815,3.9291,-0.743
9956.0,3.1927,-9.4215,-5.2124,0.2815,3.9291,-0.743
9961.0,3.1927,-9.4215,-5.2124,0.0713,-2.1717,0.5558
9966.0,3.5997,-11.6762,0.1996,0.0713,-2.1717,0.5558
9971.0,3.5997,-11.6762,0.1996,0.0713,-2.1717,0.5558
9976.0,3.5997,-11.6762,0.1996,0.0713,-2.1717,0.5558
9981.0,3.5997,-11.6762,0.1996,0.0713,-2.1717,0.5558
9986.0,3.5997,-11.6762,0.1996,0.0713,-2.1717,0.5558
9991.0,3.5997,-11.6762,0.1996,0.7005,-2.5211,1.2961
9996.0,4.39,-11.4569,1.4744,0.7005,-2.5211,1.2961
10001.0,4.39,-11.4569,1.4744,0.7005,-2.5211,1.2961
10007.0,4.39,-11.4569,1.4744,0.7005,-2.5211,1.2961
10011.0,4.39,-11.4569,1.4744,0.7005,-2.5211,1.2961
10016.0,4.39,-11.4569,1.4744,0.7005,-2.5211,1.2961
10021.0,5.4149,-12.1195,1.6308,0.7005,-2.5211,1.2961
10027.0,5.4149,-12.1195,1.6308,0.3755,-0.289,1.174
10031.0,5.4149,-12.1195,1.6308,0.3755,-0.289,1.174
10036.0,5.4149,-12.1195,1.6308,0.3755,-0.289,1.174
10041.0,5.4149,-12.1195,1.6308,0.3755,-0.289,1.174
10046.0,5.1563,-14.0262,1.1189,0.3755,-0.289,1.174
10051.0,5.1563,-14.0262,1.1189,0.3755,-0.289,1.174
10056.0,5.1563,-14.0262,1.1189,-0.2518,0.6426,-0.162
10061.0,5.1563,-14.0262,1.1189,-0.2518,0.6426,-0.162
10066.0,5.1563,-14.0262,1.1189,-0.2518,0.6426,-0.162
10072.0,4.0882,-14.3503,0.8772,-0.2518,0.6426,-0.162
10076.0,4.0882,-14.3503,0.8772,-0.2518,0.6426,-0.162
10081.0,4.0882,-14.3503,0.8772,-0.2518,0.6426,-0.162
10086.0,4.0882,-14.3503,0.8772,-0.3593,0.1777,-1.1461
10091.0,4.0882,-14.3503,0.8772,-0.3593,0.1777,-1.1461
10096.0,4.0882,-14.3503,0.8772,-0.3593,0.1777,-1.1461
10101.0,2.8095,-13.3398,1.2421,-0.3593,0.1777,-1.1461
10107.0,2.8095,-13.3398,1.2421,-0.3593,0.1777,-1.1461
10112.0,2.8095,-13.3398,1.2421,-0.3593,0.1777,-1.1461
10117.0,2.8095,-13.3398,1.2421,-0.1962,0.7,-0.6617
10121.0,2.8095,-13.3398,1.2421,-0.1962,0.7,-0.6617
10126.0,3.6333,-10.5464,1.0526,-0.1962,0.7,-0.6617
10131.0,3.6333,-10.5464,1.0526,-0.1962,0.7,-0.6617
10137.0,3.6333,-10.5464,1.0526,-0.1962,0.7,-0.6617
10141.0,3.6333,-10.5464,1.0526,-0.1962,0.7,-0.6617
10146.0,3.6333,-10.5464,1.0526,-0.1962,0.7,-0.6617
10151.0,4.0882,-8.2727,-0.4023,-0.2084,1.1649,0.0726
10157.0,4.0882,-8.2727,-0.4023,-0.2084,1.1649,0.0726
10161.0,4.0882,-8.2727,-0.4023,-0.2084,1.1649,0.0726
10166.0,4.0882,-8.2727,-0.4023,-0.2084,1.1649,0.0726
10171.0,4.0882,-8.2727,-0.4023,-0.2084,1.1649,0.0726
10176.0,4.0882,-8.2727,-0.4023,-0.2084,1.1649,0.0726
10181.0,2.5605,-9.4405,-6.0418,-0.2084,1.1649,0.0726
10186.0,2.5605,-9.4405,-6.0418,-0.5102,2.4202,-2.5719
10191.0,2.5605,-9.4405,-6.0418,-0.5102,2.4202,-2.5719
10196.0,2.5605,-9.4405,-6.0418,-0.5102,2.4202,-2.5719
10201.0,2.5605,-9.4405,-6.0418,-0.5102,2.4202,-2.5719
10207.0,1.8277,-11.19,-8.5061,-0.5102,2.4202,-2.5719
10211.0,1.8277,-11.19,-8.5061,-0.5102,2.4202,-2.5719
10217.0,1.8277,-11.19,-8.5061,-0.4925,0.7806,-3.9292
10221.0,1.8277,-11.19,-8.5061,-0.4925,0.7806,-3.9292
10227.0,1.8277,-11.19,-8.5061,-0.4925,0.7806,-3.9292
10231.0,1.8277,-11.19,-8.5061,-0.4925,0.7806,-3.9292
10236.0,1.5452,-11.6428,-9.0369,-0.4925,0.7806,-3.9292
10242.0,1.5452,-11.6428,-9.0369,-0.4925,0.7806,-3.9292
10246.0,1.5452,-11.6428,-9.0369,-0.5847,0.0067,-5.5493
10251.0,1.5452,-11.6428,-9.0369,-0.5847,0.0067,-5.5493
10256.0,1.5452,-11.6428,-9.0369,-0.5847,0.0067,-5.5493
10261.0,3.3507,-11.2758,-6.037,-0.5847,0.0067,-5.5493
10266.0,3.3507,-11.2758,-6.037,-0.5847,0.0067,-5.5493
10271.0,3.3507,-11.2758,-6.037,-0.5847,0.0067,-5.5493
10276.0,3.3507,-11.2758,-6.037,-1.5829,-2.6714,-3.2164
10281.0,3.3507,-11.2758,-6.037,-1.5829,-2.6714,-3.2164
10286.0,5.7549,-9.3595,-0.1701,-1.5829,-2.6714,-3.2164
10291.0,5.7549,-9.3595,-0.1701,-1.5829,-2.6714,-3.2164
10296.0,5.7549,-9.3595,-0.1701,-1.5829,-2.6714,-3.2164
10301.0,5.7549,-9.3595,-0.1701,-1.5829,-2.6714,-3.2164
10306.0,5.7549,-9.3595,-0.1701,-2.2903,-6.165,0.4886
10311.0,5.7549,-9.3595,-0.1701,-2.2903,-6.165,0.4886
10316.0,5.4053,-9.7742,4.2941,-2.2903,-6.165,0.4886
10321.0,5.4053,-9.7742,4.2941,-2.2903,-6.165,0.4886
10326.0,5.4053,-9.7742,4.2941,-2.2903,-6.165,0.4886
10331.0,5.4053,-9.7742,4.2941,-2.2903,-6.165,0.4886
10336.0,5.4053,-9.7742,4.2941,0.0487,-5.245,0.9504
10341.0,5.6735,-9.8219,6.4741,0.0487,-5.245,0.9504
10346.0,5.6735,-9.8219,6.4741,0.0487,-5.245,0.9504
10351.0,5.6735,-9.8219,6.4741,0.0487,-5.245,0.9504
10356.0,5.6735,-9.8219,6.4741,0.0487,-5.245,0.9504
10361.0,5.6735,-9.8219,6.4741,0.0487,-5.245,0.9504
10366.0,3.7243,-7.7197,2.479,1.4708,-1.3006,-0.1993
10371.0,3.7243,-7.7197,2.479,1.4708,-1.3006,-0.1993
10376.0,3.7243,-7.7197,2.479,1.4708,-1.3006,-0.1993
10381.0,3.7243,-7.7197,2.479,1.4708,-1.3006,-0.1993
10386.0,3.7243,-7.7197,2.479,1.4708,-1.3006,-0.1993
10391.0,3.7243,-7.7197,2.479,1.4708,-1.3006,-0.1993
10396.0,3.0394,-8.8352,-4.1556,1.2069,1.2034,-4.9451
10401.0,3.0394,-8.8352,-4.1556,1.2069,1.2034,-4.9451
10406.0,3.0394,-8.8352,-4.1556,1.2069,1.2034,-4.9451
10411.0,3.0394,-8.8352,-4.1556,1.2069,1.2034,-4.9451
10417.0,3.0394,-8.8352,-4.1556,1.2069,1.2034,-4.9451
10421.0,1.2147,-10.1127,-2.9282,1.2069,1.2034,-4.9451
10426.0,1.2147,-10.1127,-2.9282,1.2069,1.2034,-4.9451
10431.0,1.2147,-10.1127,-2.9282,-0.0215,2.0586,-5.859
10436.0,1.2147,-10.1127,-2.9282,-0.0215,2.0586,-5.859
10441.0,1.2147,-10.1127,-2.9282,-0.0215,2.0586,-5.859
10446.0,2.1342,-10.2557,-6.8095,-0.0215,2.0586,-5.859
10451.0,2.1342,-10.2557,-6.8095,-0.0215,2.0586,-5.859
10456.0,2.1342,-10.2557,-6.8095,-0.0215,2.0586,-5.859
10461.0,2.1342,-10.2557,-6.8095,0.3768,0.16,-3.8022
10466.0,2.1342,-10.2557,-6.8095,0.3768,0.16,-3.8022
10471.0,2.1342,-10.2557,-6.8095,0.3768,0.16,-3.8022
10476.0,2.7185,-7.429,-2.459,0.3768,0.16,-3.8022
10481.0,2.7185,-7.429,-2.459,0.3768,0.16,-3.8022
10486.0,2.7185,-7.429,-2.459,0.3768,0.16,-3.8022
10491.0,2.7185,-7.429,-2.459,0.7732,-0.9029,-1.8107
10496.0,2.7185,-7.429,-2.459,0.7732,-0.9029,-1.8107
10501.0,2.9724,-3.9158,-1.4212,0.7732,-0.9029,-1.8107
10506.0,2.9724,-3.9158,-1.4212,0.7732,-0.9029,-1.8107
10511.0,2.9724,-3.9158,-1.4212,0.7732,-0.9029,-1.8107
10516.0,2.9724,-3.9158,-1.4212,0.7732,-0.9029,-1.8107
10521.0,2.9724,-3.9158,-1.4212,0.5057,0.135,-1.7295
10526.0,2.2683,-2.6764,-3.0609,0.5057,0.135,-1.7295
10531.0,2.2683,-2.6764,-3.0609,0.5057,0.135,-1.7295
10536.0,2.2683,-2.6764,-3.0609,0.5057,0.135,-1.7295
10541.0,2.2683,-2.6764,-3.0609,0.5057,0.135,-1.7295
10546.0,2.2683,-2.6764,-3.0609,0.5057,0.135,-1.7295
10551.0,2.2683,-2.6764,-3.0609,0.5057,0.135,-1.7295
10556.0,1.7798,-1.6754,-3.6106,0.017,0.2553,-0.8779
10561.0,1.7798,-1.6754,-3.6106,0.017,0.2553,-0.8779
10566.0,1.7798,-1.6754,-3.6106,0.017,0.2553,-0.8779
10571.0,1.7798,-1.6754,-3.6106,0.017,0.2553,-0.8779
10576.0,1.7798,-1.6754,-3.6106,0.017,0.2553,-0.8779
10581.0,1.957,-1.1749,-3.9708,0.017,0.2553,-0.8779
10586.0,1.957,-1.1749,-3.9708,-0.2829,-0.0184,0.6388
10591.0,1.957,-1.1749,-3.9708,-0.2829,-0.0184,0.6388
10596.0,1.957,-1.1749,-3.9708,-0.2829,-0.0184,0.6388
10601.0,1.957,-1.1749,-3.9708,-0.2829,-0.0184,0.6388
10606.0,1.957,-1.1749,-3.9708,-0.2829,-0.0184,0.6388
10612.0,0.7023,-1.1749,-5.1745,-0.2829,-0.0184,0.6388
10616.0,0.7023,-1.1749,-5.1745,-0.2829,-0.0184,0.6388
10621.0,0.7023,-1.1749,-5.1745,0.0854,0.3005,1.3951
10626.0,0.7023,-1.1749,-5.1745,0.0854,0.3005,1.3951
10631.0,0.7023,-1.1749,-5.1745,0.0854,0.3005,1.3951
10637.0,-2.2335,-1.8613,-5.9612,0.0854,0.3005,1.3951
10641.0,-2.2335,-1.8613,-5.9612,0.0854,0.3005,1.3951
10646.0,-2.2335,-1.8613,-5.9612,0.0854,0.3005,1.3951
10651.0,-2.2335,-1.8613,-5.9612,0.5393,1.2736,1.9137
10656.0,-2.2335,-1.8613,-5.9612,0.5393,1.2736,1.9137
10661.0,-4.5946,-4.0636,-7.5867,0.5393,1.2736,1.9137
10666.0,-4.5946,-4.0636,-7.5867,0.5393,1.2736,1.9137
10671.0,-4.5946,-4.0636,-7.5867,0.5393,1.2736,1.9137
10676.0,-4.5946,-4.0636,-7.5867,0.5393,1.2736,1.9137
10681.0,-4.5946,-4.0636,-7.5867,0.1392,0.8967,2.7787
10686.0,-4.5946,-4.0636,-7.5867,0.1392,0.8967,2.7787
10691.0,1.5691,-2.2141,-9.4871,0.1392,0.8967,2.7787
10696.0,1.5691,-2.2141,-9.4871,0.1392,0.8967,2.7787
10701.0,1.5691,-2.2141,-9.4871,0.1392,0.8967,2.7787
10706.0,1.5691,-2.2141,-9.4871,0.1392,0.8967,2.7787
10711.0,1.5691,-2.2141,-9.4871,-1.5041,-2.0269,2.4464
10716.0,12.6753,-5.7272,-8.9326,-1.5041,-2.0269,2.4464
10721.0,12.6753,-5.7272,-8.9326,-1.5041,-2.0269,2.4464
10726.0,12.6753,-5.7272,-8.9326,-1.5041,-2.0269,2.4464
10732.0,12.6753,-5.7272,-8.9326,-1.5041,-2.0269,2.4464
10736.0,12.6753,-5.7272,-8.9326,-1.5041,-2.0269,2.4464
10741.0,13.0058,-19.9466,-7.4161,-2.9335,1.5009,1.7415
10747.0,13.0058,-19.9466,-7.4161,-2.9335,1.5009,1.7415
10751.0,13.0058,-19.9466,-7.4161,-2.9335,1.5009,1.7415
10756.0,13.0058,-19.9466,-7.4161,-2.9335,1.5009,1.7415
10761.0,13.0058,-19.9466,-7.4161,-2.9335,1.5009,1.7415
10766.0,13.0058,-19.9466,-7.4161,-2.9335,1.5009,1.7415
10771.0,7.115,-19.8369,-7.8995,-2.9335,1.5009,1.7415
10777.0,7.115,-19.8369,-7.8995,0.3377,-1.6158,2.6321
10781.0,7.115,-19.8369,-7.8995,0.3377,-1.6158,2.6321
10786.0,7.115,-19.8369,-7.8995,0.3377,-1.6158,2.6321
10791.0,7.115,-19.8369,-7.8995,0.3377,-1.6158,2.6321
10796.0,1.4398,-5.5699,0.1048,0.3377,-1.6158,2.6321
10801.0,1.4398,-5.5699,0.1048,0.3377,-1.6158,2.6321
10806.0,1.4398,-5.5699,0.1048,-0.2982,-2.694,3.7433
10812.0,1.4398,-5.5699,0.1048,-0.2982,-2.694,3.7433
10816.0,1.4398,-5.5699,0.1048,-0.2982,-2.694,3.7433
10821.0,1.4398,-5.5699,0.1048,-0.2982,-2.694,3.7433
10826.0,-1.4289,-1.8041,-1.4402,-0.2982,-2.694,3.7433
10831.0,-1.4289,-1.8041,-1.4402,-0.2982,-2.694,3.7433
10836.0,-1.4289,-1.8041,-1.4402,-0.5426,-0.4747,3.1232
10841.0,-1.4289,-1.8041,-1.4402,-0.5426,-0.4747,3.1232
10846.0,-1.4289,-1.8041,-1.4402,-0.5426,-0.4747,3.1232
10851.0,1.6936,-5.3697,-1.0516,-0.5426,-0.4747,3.1232
10856.0,1.6936,-5.3697,-1.0516,-0.5426,-0.4747,3.1232
10861.0,1.6936,-5.3697,-1.0516,-0.5426,-0.4747,3.1232
10866.0,1.6936,-5.3697,-1.0516,-0.1889,0.251,1.7653
10871.0,1.6936,-5.3697,-1.0516,-0.1889,0.251,1.7653
10877.0,5.9608,-12.1147,-1.0989,-0.1889,0.251,1.7653
10881.0,5.9608,-12.1147,-1.0989,-0.1889,0.251,1.7653
10886.0,5.9608,-12.1147,-1.0989,-0.1889,0.251,1.7653
10891.0,5.9608,-12.1147,-1.0989,-0.1889,0.251,1.7653
10896.0,5.9608,-12.1147,-1.0989,-0.432,1.2315,0.7977
10901.0,5.9608,-12.1147,-1.0989,-0.432,1.2315,0.7977
10906.0,4.1457,-15.4276,-3.1557,-0.432,1.2315,0.7977
10911.0,4.1457,-15.4276,-3.1557,-0.432,1.2315,0.7977
10916.0,4.1457,-15.4276,-3.1557,-0.432,1.2315,0.7977
10921.0,4.1457,-15.4276,-3.1557,-0.432,1.2315,0.7977
10926.0,4.1457,-15.4276,-3.1557,-0.3905,1.9566,0.5441
10931.0,4.1457,-15.4276,-3.1557,-0.3905,1.9566,0.5441
10936.0,0.4006,-8.3918,-3.3879,-0.3905,1.9566,0.5441
10941.0,0.4006,-8.3918,-3.3879,-0.3905,1.9566,0.5441
10946.0,0.4006,-8.3918,-3.3879,-0.3905,1.9566,0.5441
10952.0,0.4006,-8.3918,-3.3879,-0.3905,1.9566,0.5441
10956.0,0.4006,-8.3918,-3.3879,-0.2658,1.2217,1.0982
10961.0,0.798,-6.8426,-1.952,-0.2658,1.2217,1.0982
10966.0,0.798,-6.8426,-1.952,-0.2658,1.2217,1.0982
10971.0,0.798,-6.8426,-1.952,-0.2658,1.2217,1.0982
10976.0,0.798,-6.8426,-1.952,-0.2658,1.2217,1.0982
10981.0,0.798,-6.8426,-1.952,-0.2658,1.2217,1.0982
10986.0,1.6458,-6.8045,-0.7056,-0.0948,0.4929,1.2998
10991.0,1.6458,-6.8045,-0.7056,-0.0948,0.4929,1.2998
10996.0,1.6458,-6.8045,-0.7056,-0.0948,0.4929,1.2998
11001.0,1.6458,-6.8045,-0.7056,-0.0948,0.4929,1.2998
11006.0,1.6458,-6.8045,-0.7056,-0.0948,0.4929,1.2998
11011.0,2.8766,-7.4051,-2.0562,-0.0948,0.4929,1.2998
11016.0,2.8766,-7.4051,-2.0562,-0.0948,0.4929,1.2998
11021.0,2.8766,-7.4051,-2.0562,-0.0936,1.2846,0.8019
11026.0,2.8766,-7.4051,-2.0562,-0.0936,1.2846,0.8019
11031.0,2.8766,-7.4051,-2.0562,-0.0936,1.2846,0.8019
11036.0,2.8766,-7.4051,-2.0562,-0.0936,1.2846,0.8019
11041.0,2.8191,-8.6635,-1.9662,-0.0936,1.2846,0.8019
11046.0,2.8191,-8.6635,-1.9662,-0.0936,1.2846,0.8019
11051.0,2.8191,-8.6635,-1.9662,0.0536,2.0891,0.4214
11056.0,2.8191,-8.6635,-1.9662,0.0536,2.0891,0.4214
11061.0,2.8191,-8.6635,-1.9662,0.0536,2.0891,0.4214
11066.0,2.8191,-8.6635,-1.9662,0.0536,2.0891,0.4214
11071.0,2.072,-9.3595,-1.3264,0.0536,2.0891,0.4214
11076.0,2.072,-9.3595,-1.3264,0.0536,2.0891,0.4214
11081.0,2.072,-9.3595,-1.3264,0.0591,1.9786,0.5063
11086.0,2.072,-9.3595,-1.3264,0.0591,1.9786,0.5063
11091.0,2.072,-9.3595,-1.3264,0.0591,1.9786,0.5063
11096.0,1.1908,-9.512,-0.7482,0.0591,1.9786,0.5063
11101.0,1.1908,-9.512,-0.7482,0.0591,1.9786,0.5063
11106.0,1.1908,-9.512,-0.7482,0.0591,1.9786,0.5063
11112.0,1.1908,-9.512,-0.7482,0.0591,1.9786,0.5063
11116.0,1.1908,-9.512,-0.7482,0.166,1.2492,0.4421
11121.0,0.8747,-9.145,0.1143,0.166,1.2492,0.4421
11126.0,0.8747,-9.145,0.1143,0.166,1.2492,0.4421
11131.0,0.8747,-9.145,0.1143,0.166,1.2492,0.4421
11136.0,0.8747,-9.145,0.1143,0.166,1.2492,0.4421
