time in milliseconds,acceleration_x,acceleration_y,acceleration_z,Roll,Pitch,Yaw
5.0,-4.2642,2.5003,4.5405,0.3363,1.0332,0.2212
10.0,-4.2642,2.5003,4.5405,0.3363,1.0332,0.2212
15.0,-4.2642,2.5003,4.5405,-0.1365,0.9764,-0.2137
20.0,-4.2642,2.5003,4.5405,-0.1365,0.9764,-0.2137
25.0,-4.0678,-1.2178,4.8533,-0.1365,0.9764,-0.2137
30.0,-4.0678,-1.2178,4.8533,-0.1365,0.9764,-0.2137
36.0,-4.0678,-1.2178,4.8533,-0.1365,0.9764,-0.2137
40.0,-4.0678,-1.2178,4.8533,-0.1365,0.9764,-0.2137
45.0,-4.0678,-1.2178,4.8533,0.0602,1.6362,0.7948
50.0,-2.3389,-0.498,2.5691,0.0602,1.6362,0.7948
55.0,-2.3389,-0.498,2.5691,0.0602,1.6362,0.7948
60.0,-2.3389,-0.498,2.5691,0.0602,1.6362,0.7948
65.0,-2.3389,-0.498,2.5691,0.0602,1.6362,0.7948
70.0,-2.3389,-0.498,2.5691,0.0602,1.6362,0.7948
75.0,-2.3389,-0.498,2.5691,0.0602,1.6362,0.7948
80.0,-4.1013,-0.8889,2.1283,-1.1854,2.8885,1.3666
85.0,-4.1013,-0.8889,2.1283,-1.1854,2.8885,1.3666
90.0,-4.1013,-0.8889,2.1283,-1.1854,2.8885,1.3666
95.0,-4.1013,-0.8889,2.1283,-1.1854,2.8885,1.3666
100.0,-4.1013,-0.8889,2.1283,-1.1854,2.8885,1.3666
105.0,-4.1013,-0.8889,2.1283,-1.1854,2.8885,1.3666
110.0,-2.6071,-0.846,1.3038,-2.6344,3.4224,2.1277
115.0,-2.6071,-0.846,1.3038,-2.6344,3.4224,2.1277
120.0,-2.6071,-0.846,1.3038,-2.6344,3.4224,2.1277
125.0,-2.6071,-0.846,1.3038,-2.6344,3.4224,2.1277
131.0,-2.6071,-0.846,1.3038,-2.6344,3.4224,2.1277
135.0,-2.3868,-2.3761,0.0953,-2.6344,3.4224,2.1277
140.0,-2.3868,-2.3761,0.0953,-4.1194,4.4664,1.5737
145.0,-2.3868,-2.3761,0.0953,-4.1194,4.4664,1.5737
150.0,-2.3868,-2.3761,0.0953,-4.1194,4.4664,1.5737
155.0,-2.3868,-2.3761,0.0953,-4.1194,4.4664,1.5737
160.0,-2.3868,-2.3761,0.0953,-4.1194,4.4664,1.5737
165.0,-1.3044,-6.2468,2.8866,-4.1194,4.4664,1.5737
170.0,-1.3044,-6.2468,2.8866,-5.5134,6.1206,0.0575
175.0,-1.3044,-6.2468,2.8866,-5.5134,6.1206,0.0575
180.0,-1.3044,-6.2468,2.8866,-5.5134,6.1206,0.0575
185.0,-1.3044,-6.2468,2.8866,-5.5134,6.1206,0.0575
190.0,-2.3149,-8.7446,1.3417,-5.5134,6.1206,0.0575
195.0,-2.3149,-8.7446,1.3417,-5.5134,6.1206,0.0575
200.0,-2.3149,-8.7446,1.3417,-5.5134,6.1206,0.0575
205.0,-2.3149,-8.7446,1.3417,-7.9984,6.478,-1.474
210.0,-2.3149,-8.7446,1.3417,-7.9984,6.478,-1.474
215.0,-2.3149,-8.7446,1.3417,-7.9984,6.478,-1.474
220.0,-4.2881,-11.8382,2.1852,-7.9984,6.478,-1.474
225.0,-4.2881,-11.8382,2.1852,-7.9984,6.478,-1.474
230.0,-4.2881,-11.8382,2.1852,-7.9984,6.478,-1.474
235.0,-4.2881,-11.8382,2.1852,-9.6405,6.5274,-1.7379
240.0,-4.2881,-11.8382,2.1852,-9.6405,6.5274,-1.7379
245.0,-12.7315,-15.7184,2.8676,-9.6405,6.5274,-1.7379
250.0,-12.7315,-15.7184,2.8676,-9.6405,6.5274,-1.7379
255.0,-12.7315,-15.7184,2.8676,-9.6405,6.5274,-1.7379
260.0,-12.7315,-15.7184,2.8676,-9.6405,6.5274,-1.7379
265.0,-12.7315,-15.7184,2.8676,-7.5085,5.8646,-0.9565
271.0,-20.1117,-17.1628,6.6636,-7.5085,5.8646,-0.9565
275.0,-20.1117,-17.1628,6.6636,-7.5085,5.8646,-0.9565
280.0,-20.1117,-17.1628,6.6636,-7.5085,5.8646,-0.9565
285.0,-20.1117,-17.1628,6.6636,-7.5085,5.8646,-0.9565
290.0,-20.1117,-17.1628,6.6636,-7.5085,5.8646,-0.9565
295.0,-20.1117,-17.1628,6.6636,-3.806,2.4102,1.0178
300.0,-19.5274,-16.6575,2.3606,-3.806,2.4102,1.0178
305.0,-19.5274,-16.6575,2.3606,-3.806,2.4102,1.0178
310.0,-19.5274,-16.6575,2.3606,-3.806,2.4102,1.0178
315.0,-19.5274,-16.6575,2.3606,-3.806,2.4102,1.0178
320.0,-19.5274,-16.6575,2.3606,-3.806,2.4102,1.0178
325.0,-19.8004,-13.4065,0.5834,-4.7175,-0.6943,2.1803
330.0,-19.8004,-13.4065,0.5834,-4.7175,-0.6943,2.1803
335.0,-19.8004,-13.4065,0.5834,-4.7175,-0.6943,2.1803
340.0,-19.8004,-13.4065,0.5834,-4.7175,-0.6943,2.1803
345.0,-19.8004,-13.4065,0.5834,-4.7175,-0.6943,2.1803
350.0,-20.0159,-9.3929,0.0195,-4.7175,-0.6943,2.1803
355.0,-20.0159,-9.3929,0.0195,-4.7175,-0.6943,2.1803
360.0,-20.0159,-9.3929,0.0195,-4.7175,-0.6943,2.1803
365.0,-20.0159,-9.3929,0.0195,-3.2471,-2.0651,2.0868
370.0,-20.0159,-9.3929,0.0195,-3.2471,-2.0651,2.0868
375.0,-20.0159,-9.3929,0.0195,-3.2471,-2.0651,2.0868
380.0,-17.9661,-7.3002,-1.3217,-3.2471,-2.0651,2.0868
385.0,-17.9661,-7.3002,-1.3217,-3.2471,-2.0651,2.0868
390.0,-17.9661,-7.3002,-1.3217,-3.2471,-2.0651,2.0868
395.0,-17.9661,-7.3002,-1.3217,-1.2788,-3.0492,0.8693
400.0,-17.9661,-7.3002,-1.3217,-1.2788,-3.0492,0.8693
405.0,-17.9661,-7.3002,-1.3217,-1.2788,-3.0492,0.8693
410.0,-15.7008,-6.2134,-1.824,-1.2788,-3.0492,0.8693
415.0,-15.7008,-6.2134,-1.824,-1.2788,-3.0492,0.8693
420.0,-15.7008,-6.2134,-1.824,-1.2788,-3.0492,0.8693
425.0,-15.7008,-6.2134,-1.824,-1.2788,-3.0492,0.8693
430.0,-15.7008,-6.2134,-1.824,-0.96,-3.9233,-0.4318
435.0,-11.5438,-5.7701,-1.5823,-0.96,-3.9233,-0.4318
440.0,-11.5438,-5.7701,-1.5823,-0.96,-3.9233,-0.4318
445.0,-11.5438,-5.7701,-1.5823,-0.96,-3.9233,-0.4318
450.0,-11.5438,-5.7701,-1.5823,-0.96,-3.9233,-0.4318
455.0,-11.5438,-5.7701,-1.5823,-0.2672,-3.1249,-0.6145
460.0,-9.2641,-6.5709,-0.5208,-0.2672,-3.1249,-0.6145
465.0,-9.2641,-6.5709,-0.5208,-0.2672,-3.1249,-0.6145
470.0,-9.2641,-6.5709,-0.5208,-0.2672,-3.1249,-0.6145
475.0,-9.2641,-6.5709,-0.5208,-0.2672,-3.1249,-0.6145
480.0,-9.2641,-6.5709,-0.5208,-0.2672,-3.1249,-0.6145
485.0,-9.2641,-6.5709,-0.5208,-0.2672,-3.1249,-0.6145
490.0,-7.4586,-7.8532,2.607,0.9154,-1.8977,1.2218
495.0,-7.4586,-7.8532,2.607,0.9154,-1.8977,1.2218
500.0,-7.4586,-7.8532,2.607,0.9154,-1.8977,1.2218
506.0,-7.4586,-7.8532,2.607,0.9154,-1.8977,1.2218
510.0,-7.4586,-7.8532,2.607,0.9154,-1.8977,1.2218
515.0,0.2952,-6.2515,2.9624,0.9154,-1.8977,1.2218
520.0,0.2952,-6.2515,2.9624,-0.5427,2.04,1.5028
525.0,0.2952,-6.2515,2.9624,-0.5427,2.04,1.5028
530.0,0.2952,-6.2515,2.9624,-0.5427,2.04,1.5028
535.0,0.2952,-6.2515,2.9624,-0.5427,2.04,1.5028
540.0,-6.6348,-8.7398,-1.2079,-0.5427,2.04,1.5028
546.0,-6.6348,-8.7398,-1.2079,-0.5427,2.04,1.5028
550.0,-6.6348,-8.7398,-1.2079,-0.2495,2.6887,0.6781
555.0,-6.6348,-8.7398,-1.2079,-0.2495,2.6887,0.6781
560.0,-6.6348,-8.7398,-1.2079,-0.2495,2.6887,0.6781
565.0,-6.6348,-8.7398,-1.2079,-0.2495,2.6887,0.6781
570.0,-3.2919,-8.7589,2.6117,-0.2495,2.6887,0.6781
575.0,-3.2919,-8.7589,2.6117,-0.2495,2.6887,0.6781
580.0,-3.2919,-8.7589,2.6117,0.8415,1.291,1.1736
585.0,-3.2919,-8.7589,2.6117,0.8415,1.291,1.1736
590.0,-3.2919,-8.7589,2.6117,0.8415,1.291,1.1736
595.0,-2.837,-8.492,1.7208,0.8415,1.291,1.1736
600.0,-2.837,-8.492,1.7208,0.8415,1.291,1.1736
605.0,-2.837,-8.492,1.7208,0.8415,1.291,1.1736
610.0,-2.837,-8.492,1.7208,-0.2764,1.4193,2.0324
615.0,-2.837,-8.492,1.7208,-0.2764,1.4193,2.0324
620.0,-5.8638,-9.4834,9.1279,-0.2764,1.4193,2.0324
625.0,-5.8638,-9.4834,9.1279,-0.2764,1.4193,2.0324
630.0,-5.8638,-9.4834,9.1279,-0.2764,1.4193,2.0324
635.0,-5.8638,-9.4834,9.1279,-0.2764,1.4193,2.0324
640.0,-5.8638,-9.4834,9.1279,-1.0345,1.4401,1.6317
645.0,-5.8638,-9.4834,9.1279,-1.0345,1.4401,1.6317
650.0,-5.4471,-8.94,6.5309,-1.0345,1.4401,1.6317
655.0,-5.4471,-8.94,6.5309,-1.0345,1.4401,1.6317
660.0,-5.4471,-8.94,6.5309,-1.0345,1.4401,1.6317
665.0,-5.4471,-8.94,6.5309,-1.0345,1.4401,1.6317
670.0,-5.4471,-8.94,6.5309,0.5226,1.6619,1.9243
675.0,-4.2594,-6.733,3.6875,0.5226,1.6619,1.9243
680.0,-4.2594,-6.733,3.6875,0.5226,1.6619,1.9243
685.0,-4.2594,-6.733,3.6875,0.5226,1.6619,1.9243
690.0,-4.2594,-6.733,3.6875,0.5226,1.6619,1.9243
695.0,-4.2594,-6.733,3.6875,0.5226,1.6619,1.9243
700.0,-5.155,-8.8256,6.9195,-0.9294,1.9887,1.4558
705.0,-5.155,-8.8256,6.9195,-0.9294,1.9887,1.4558
710.0,-5.155,-8.8256,6.9195,-0.9294,1.9887,1.4558
715.0,-5.155,-8.8256,6.9195,-0.9294,1.9887,1.4558
720.0,-5.155,-8.8256,6.9195,-0.9294,1.9887,1.4558
725.0,-5.155,-8.8256,6.9195,-0.9294,1.9887,1.4558
730.0,-3.8762,-6.8379,2.8108,-0.668,2.3509,1.1723
735.0,-3.8762,-6.8379,2.8108,-0.668,2.3509,1.1723
740.0,-3.8762,-6.8379,2.8108,-0.668,2.3509,1.1723
745.0,-3.8762,-6.8379,2.8108,-0.668,2.3509,1.1723
750.0,-3.8762,-6.8379,2.8108,-0.668,2.3509,1.1723
755.0,-7.085,-6.5614,3.1899,-0.668,2.3509,1.1723
760.0,-7.085,-6.5614,3.1899,-0.668,2.3509,1.1723
766.0,-7.085,-6.5614,3.1899,0.792,1.6527,0.953
770.0,-7.085,-6.5614,3.1899,0.792,1.6527,0.953
776.0,-7.085,-6.5614,3.1899,0.792,1.6527,0.953
781.0,-5.0304,-6.9713,4.7064,0.792,1.6527,0.953
786.0,-5.0304,-6.9713,4.7064,0.792,1.6527,0.953
791.0,-5.0304,-6.9713,4.7064,0.792,1.6527,0.953
795.0,-5.0304,-6.9713,4.7064,-0.9862,1.1915,0.3788
800.0,-5.0304,-6.9713,4.7064,-0.9862,1.1915,0.3788
805.0,-5.0304,-6.9713,4.7064,-0.9862,1.1915,0.3788
810.0,-5.0304,-6.9713,4.7064,-0.9862,1.1915,0.3788
816.0,-5.0304,-6.9713,4.7064,-0.9862,1.1915,0.3788
820.0,-2.0755,-11.333,7.3555,-0.9862,1.1915,0.3788
825.0,-2.0755,-11.333,7.3555,0.1292,2.6008,1.3764
830.0,-2.0755,-11.333,7.3555,0.1292,2.6008,1.3764
835.0,-2.0755,-11.333,7.3555,0.1292,2.6008,1.3764
841.0,-2.0755,-11.333,7.3555,0.1292,2.6008,1.3764
845.0,-2.0755,-11.333,7.3555,0.1292,2.6008,1.3764
850.0,-4.5132,-4.2304,1.3132,0.1292,2.6008,1.3764
855.0,-4.5132,-4.2304,1.3132,1.9429,2.434,1.6818
860.0,-4.5132,-4.2304,1.3132,1.9429,2.434,1.6818
865.0,-4.5132,-4.2304,1.3132,1.9429,2.434,1.6818
871.0,-4.5132,-4.2304,1.3132,1.9429,2.434,1.6818
875.0,-4.5132,-4.2304,1.3132,1.9429,2.434,1.6818
880.0,-7.2047,-10.1889,0.2138,1.9429,2.434,1.6818
886.0,-7.2047,-10.1889,0.2138,1.8928,0.9612,0.1882
890.0,-7.2047,-10.1889,0.2138,1.8928,0.9612,0.1882
895.0,-7.2047,-10.1889,0.2138,1.8928,0.9612,0.1882
900.0,-7.2047,-10.1889,0.2138,1.8928,0.9612,0.1882
905.0,-3.0716,-8.287,1.4364,1.8928,0.9612,0.1882
910.0,-3.0716,-8.287,1.4364,1.8928,0.9612,0.1882
915.0,-3.0716,-8.287,1.4364,2.4896,-1.0364,0.11
920.0,-3.0716,-8.287,1.4364,2.4896,-1.0364,0.11
925.0,-3.0716,-8.287,1.4364,2.4896,-1.0364,0.11
930.0,-1.3284,-5.6271,2.7444,2.4896,-1.0364,0.11
935.0,-1.3284,-5.6271,2.7444,2.4896,-1.0364,0.11
940.0,-1.3284,-5.6271,2.7444,2.4896,-1.0364,0.11
945.0,-1.3284,-5.6271,2.7444,2.4896,-1.0364,0.11
950.0,-1.3284,-5.6271,2.7444,2.7285,-1.1225,-0.8478
955.0,-1.3284,-5.6271,2.7444,2.7285,-1.1225,-0.8478
960.0,-3.6176,-3.7728,1.8156,2.7285,-1.1225,-0.8478
965.0,-3.6176,-3.7728,1.8156,2.7285,-1.1225,-0.8478
970.0,-3.6176,-3.7728,1.8156,2.7285,-1.1225,-0.8478
975.0,-3.6176,-3.7728,1.8156,2.7285,-1.1225,-0.8478
980.0,-3.6176,-3.7728,1.8156,4.8732,-1.1237,-2.5039
986.0,-1.9031,-3.7204,4.2135,4.8732,-1.1237,-2.5039
990.0,-1.9031,-3.7204,4.2135,4.8732,-1.1237,-2.5039
995.0,-1.9031,-3.7204,4.2135,4.8732,-1.1237,-2.5039
1000.0,-1.9031,-3.7204,4.2135,4.8732,-1.1237,-2.5039
1005.0,-1.9031,-3.7204,4.2135,4.8732,-1.1237,-2.5039
1010.0,-4.8245,-5.6748,10.2653,6.0528,0.0155,-2.069
1015.0,-4.8245,-5.6748,10.2653,6.0528,0.0155,-2.069
1020.0,-4.8245,-5.6748,10.2653,6.0528,0.0155,-2.069
1025.0,-4.8245,-5.6748,10.2653,6.0528,0.0155,-2.069
1030.0,-4.8245,-5.6748,10.2653,6.0528,0.0155,-2.069
1035.0,-4.8245,-5.6748,10.2653,6.0528,0.0155,-2.069
1040.0,-2.9615,-0.8937,3.4221,6.0528,0.0155,-2.069
1046.0,-2.9615,-0.8937,3.4221,4.1445,2.2391,-1.5699
1050.0,-2.9615,-0.8937,3.4221,4.1445,2.2391,-1.5699
1055.0,-2.9615,-0.8937,3.4221,4.1445,2.2391,-1.5699
1060.0,-2.9615,-0.8937,3.4221,4.1445,2.2391,-1.5699
1065.0,-7.1185,-1.213,6.7063,4.1445,2.2391,-1.5699
1070.0,-7.1185,-1.213,6.7063,4.1445,2.2391,-1.5699
1075.0,-7.1185,-1.213,6.7063,-3.2306,2.7101,-1.1893
1080.0,-7.1185,-1.213,6.7063,-3.2306,2.7101,-1.1893
1086.0,-7.1185,-1.213,6.7063,-3.2306,2.7101,-1.1893
1090.0,-7.1185,-1.213,6.7063,-3.2306,2.7101,-1.1893
1095.0,-6.1224,-0.293,8.1422,-3.2306,2.7101,-1.1893
1100.0,-6.1224,-0.293,8.1422,-3.2306,2.7101,-1.1893
1105.0,-6.1224,-0.293,8.1422,-8.5427,9.0149,2.9487
1110.0,-6.1224,-0.293,8.1422,-8.5427,9.0149,2.9487
1115.0,-6.1224,-0.293,8.1422,-8.5427,9.0149,2.9487
1120.0,-2.382,-7.3765,-6.7005,-8.5427,9.0149,2.9487
1125.0,-2.382,-7.3765,-6.7005,-8.5427,9.0149,2.9487
1130.0,-2.382,-7.3765,-6.7005,-8.5427,9.0149,2.9487
1136.0,-2.382,-7.3765,-6.7005,-8.5158,0.7938,7.5394
1140.0,-2.382,-7.3765,-6.7005,-8.5158,0.7938,7.5394
1145.0,-2.382,-7.3765,-6.7005,-8.5158,0.7938,7.5394
1151.0,-2.5592,-9.8838,11.2984,-8.5158,0.7938,7.5394
1155.0,-2.5592,-9.8838,11.2984,-8.5158,0.7938,7.5394
1160.0,-2.5592,-9.8838,11.2984,-8.5158,0.7938,7.5394
1165.0,-2.5592,-9.8838,11.2984,-7.434,7.4376,1.3586
1170.0,-2.5592,-9.8838,11.2984,-7.434,7.4376,1.3586
1175.0,-6.654,-18.936,-20.6476,-7.434,7.4376,1.3586
1180.0,-6.654,-18.936,-20.6476,-7.434,7.4376,1.3586
1185.0,-6.654,-18.936,-20.6476,-7.434,7.4376,1.3586
1190.0,-6.654,-18.936,-20.6476,-7.434,7.4376,1.3586
1195.0,-6.654,-18.936,-20.6476,-4.4823,-0.7321,-1.2174
1201.0,-6.1272,-8.5349,-0.4023,-4.4823,-0.7321,-1.2174
1205.0,-6.1272,-8.5349,-0.4023,-4.4823,-0.7321,-1.2174
1210.0,-6.1272,-8.5349,-0.4023,-4.4823,-0.7321,-1.2174
1215.0,-6.1272,-8.5349,-0.4023,-4.4823,-0.7321,-1.2174
1220.0,-6.1272,-8.5349,-0.4023,-4.4823,-0.7321,-1.2174
1225.0,-4.8006,-16.6861,3.5832,-3.0546,0.6105,-1.2711
1230.0,-4.8006,-16.6861,3.5832,-3.0546,0.6105,-1.2711
1235.0,-4.8006,-16.6861,3.5832,-3.0546,0.6105,-1.2711
1240.0,-4.8006,-16.6861,3.5832,-3.0546,0.6105,-1.2711
1245.0,-4.8006,-16.6861,3.5832,-3.0546,0.6105,-1.2711
1251.0,-4.8006,-16.6861,3.5832,-3.0546,0.6105,-1.2711
1255.0,-4.9394,-14.6316,5.621,-3.0546,0.6105,-1.2711
1260.0,-4.9394,-14.6316,5.621,-0.3998,1.3643,1.0166
1265.0,-4.9394,-14.6316,5.621,-0.3998,1.3643,1.0166
1270.0,-4.9394,-14.6316,5.621,-0.3998,1.3643,1.0166
1275.0,-4.9394,-14.6316,5.621,-0.3998,1.3643,1.0166
1281.0,-3.3494,-11.4521,3.0288,-0.3998,1.3643,1.0166
1285.0,-3.3494,-11.4521,3.0288,-0.3998,1.3643,1.0166
1290.0,-3.3494,-11.4521,3.0288,1.1506,1.6258,2.2499
1296.0,-3.3494,-11.4521,3.0288,1.1506,1.6258,2.2499
1301.0,-3.3494,-11.4521,3.0288,1.1506,1.6258,2.2499
1305.0,-3.3494,-11.4521,3.0288,1.1506,1.6258,2.2499
1310.0,-3.3494,-11.4521,3.0288,1.1506,1.6258,2.2499
1315.0,-1.9031,-8.6445,-6.6673,1.1506,1.6258,2.2499
1321.0,-1.9031,-8.6445,-6.6673,0.9111,0.1017,0.201
1325.0,-1.9031,-8.6445,-6.6673,0.9111,0.1017,0.201
1330.0,-1.9031,-8.6445,-6.6673,0.9111,0.1017,0.201
1335.0,-1.9031,-8.6445,-6.6673,0.9111,0.1017,0.201
1340.0,-1.7833,-1.3656,-0.7388,0.9111,0.1017,0.201
1345.0,-1.7833,-1.3656,-0.7388,0.9111,0.1017,0.201
1350.0,-1.7833,-1.3656,-0.7388,-0.4224,-1.1628,-0.9657
1355.0,-1.7833,-1.3656,-0.7388,-0.4224,-1.1628,-0.9657
1360.0,-1.7833,-1.3656,-0.7388,-0.4224,-1.1628,-0.9657
1365.0,-1.2901,-1.2321,0.1996,-0.4224,-1.1628,-0.9657
1370.0,-1.2901,-1.2321,0.1996,-0.4224,-1.1628,-0.9657
1375.0,-1.2901,-1.2321,0.1996,-0.4224,-1.1628,-0.9657
1380.0,-1.2901,-1.2321,0.1996,-1.0858,-0.2825,-1.3383
1385.0,-1.2901,-1.2321,0.1996,-1.0858,-0.2825,-1.3383
1390.0,-1.2901,-1.2321,0.1996,-1.0858,-0.2825,-1.3383
1395.0,-2.9232,-12.4579,-1.5207,-1.0858,-0.2825,-1.3383
1400.0,-2.9232,-12.4579,-1.5207,-1.0858,-0.2825,-1.3383
1405.0,-2.9232,-12.4579,-1.5207,-1.0858,-0.2825,-1.3383
1410.0,-2.9232,-12.4579,-1.5207,-1.0858,-0.2825,-1.3383
1415.0,-2.9232,-12.4579,-1.5207,-1.3943,1.1035,-1.4031
1422.0,-4.5132,-22.5016,0.5313,-1.3943,1.1035,-1.4031
1425.0,-4.5132,-22.5016,0.5313,-1.3943,1.1035,-1.4031
1430.0,-4.5132,-22.5016,0.5313,-1.3943,1.1035,-1.4031
1435.0,-4.5132,-22.5016,0.5313,-1.3943,1.1035,-1.4031
1440.0,-4.5132,-22.5016,0.5313,-1.3943,1.1035,-1.4031
1445.0,-4.5132,-22.5016,0.5313,-2.2416,1.9636,-1.4526
1450.0,-0.9261,-20.6807,-1.6866,-2.2416,1.9636,-1.4526
1455.0,-0.9261,-20.6807,-1.6866,-2.2416,1.9636,-1.4526
1461.0,-0.9261,-20.6807,-1.6866,-2.2416,1.9636,-1.4526
1465.0,-0.9261,-20.6807,-1.6866,-2.2416,1.9636,-1.4526
1470.0,-0.9261,-20.6807,-1.6866,-2.2416,1.9636,-1.4526
1475.0,0.6544,-11.6666,-0.1796,-2.6191,1.3045,-0.7947
1480.0,0.6544,-11.6666,-0.1796,-2.6191,1.3045,-0.7947
1486.0,0.6544,-11.6666,-0.1796,-2.6191,1.3045,-0.7947
1490.0,0.6544,-11.6666,-0.1796,-2.6191,1.3045,-0.7947
1495.0,0.6544,-11.6666,-0.1796,-2.6191,1.3045,-0.7947
1500.0,0.6544,-11.6666,-0.1796,-2.6191,1.3045,-0.7947
1506.0,0.6592,-7.1668,0.5502,-2.2361,0.3002,0.0092
1510.0,0.6592,-7.1668,0.5502,-2.2361,0.3002,0.0092
1515.0,0.6592,-7.1668,0.5502,-2.2361,0.3002,0.0092
1520.0,0.6592,-7.1668,0.5502,-2.2361,0.3002,0.0092
1526.0,0.6592,-7.1668,0.5502,-2.2361,0.3002,0.0092
1530.0,0.4293,-7.0571,0.2564,-2.2361,0.3002,0.0092
1535.0,0.4293,-7.0571,0.2564,-2.2361,0.3002,0.0092
1540.0,0.4293,-7.0571,0.2564,-1.2923,-0.6338,0.4772
1545.0,0.4293,-7.0571,0.2564,-1.2923,-0.6338,0.4772
1550.0,0.4293,-7.0571,0.2564,-1.2923,-0.6338,0.4772
1555.0,0.7262,-9.7218,0.209,-1.2923,-0.6338,0.4772
1560.0,0.7262,-9.7218,0.209,-1.2923,-0.6338,0.4772
1565.0,0.7262,-9.7218,0.209,-1.2923,-0.6338,0.4772
1570.0,0.7262,-9.7218,0.209,-0.0803,-1.544,0.6873
1576.0,0.7262,-9.7218,0.209,-0.0803,-1.544,0.6873
1580.0,0.7262,-9.7218,0.209,-0.0803,-1.544,0.6873
1585.0,1.6745,-11.9669,0.2754,-0.0803,-1.544,0.6873
1590.0,1.6745,-11.9669,0.2754,-0.0803,-1.544,0.6873
1596.0,1.6745,-11.9669,0.2754,-0.0803,-1.544,0.6873
1600.0,1.6745,-11.9669,0.2754,0.6875,-1.9673,1.2334
1606.0,1.6745,-11.9669,0.2754,0.6875,-1.9673,1.2334
1610.0,1.6601,-11.0279,2.0051,0.6875,-1.9673,1.2334
1616.0,1.6601,-11.0279,2.0051,0.6875,-1.9673,1.2334
1620.0,1.6601,-11.0279,2.0051,0.6875,-1.9673,1.2334
1626.0,1.6601,-11.0279,2.0051,0.3112,-0.6008,2.3525
1631.0,1.6601,-11.0279,2.0051,0.3112,-0.6008,2.3525
1635.0,1.6601,-11.0279,2.0051,0.3112,-0.6008,2.3525
1640.0,1.3632,-9.7933,1.1758,0.3112,-0.6008,2.3525
1645.0,1.3632,-9.7933,1.1758,0.3112,-0.6008,2.3525
1650.0,1.3632,-9.7933,1.1758,0.3112,-0.6008,2.3525
1655.0,1.3632,-9.7933,1.1758,0.3112,-0.6008,2.3525
1660.0,1.3632,-9.7933,1.1758,0.299,0.1151,1.9946
1665.0,1.2387,-9.3976,0.9483,0.299,0.1151,1.9946
1670.0,1.2387,-9.3976,0.9483,0.299,0.1151,1.9946
1676.0,1.2387,-9.3976,0.9483,0.299,0.1151,1.9946
1680.0,1.2387,-9.3976,0.9483,0.299,0.1151,1.9946
1686.0,1.2387,-9.3976,0.9483,0.299,0.1151,1.9946
1691.0,0.3383,-9.1974,-2.8382,0.4902,0.8708,0.4319
1695.0,0.3383,-9.1974,-2.8382,0.4902,0.8708,0.4319
1700.0,0.3383,-9.1974,-2.8382,0.4902,0.8708,0.4319
1705.0,0.3383,-9.1974,-2.8382,0.4902,0.8708,0.4319
1711.0,0.3383,-9.1974,-2.8382,0.4902,0.8708,0.4319
1715.0,0.3383,-9.1974,-2.8382,0.4902,0.8708,0.4319
1720.0,-0.5764,-10.8468,-3.4495,0.4902,0.8708,0.4319
1726.0,-0.5764,-10.8468,-3.4495,0.0706,1.4377,-0.0494
1730.0,-0.5764,-10.8468,-3.4495,0.0706,1.4377,-0.0494
1735.0,-0.5764,-10.8468,-3.4495,0.0706,1.4377,-0.0494
1740.0,-0.5764,-10.8468,-3.4495,0.0706,1.4377,-0.0494
1745.0,0.3335,-10.5989,-1.8856,0.0706,1.4377,-0.0494
1750.0,0.3335,-10.5989,-1.8856,0.0706,1.4377,-0.0494
1755.0,0.3335,-10.5989,-1.8856,-0.0522,-0.7535,-0.2394
1760.0,0.3335,-10.5989,-1.8856,-0.0522,-0.7535,-0.2394
1765.0,0.3335,-10.5989,-1.8856,-0.0522,-0.7535,-0.2394
1771.0,0.3335,-10.5989,-1.8856,-0.0522,-0.7535,-0.2394
1776.0,0.8651,-9.8457,0.6261,-0.0522,-0.7535,-0.2394
1780.0,0.8651,-9.8457,0.6261,-0.0522,-0.7535,-0.2394
1785.0,0.8651,-9.8457,0.6261,-0.0571,-2.2092,-0.4538
1790.0,0.8651,-9.8457,0.6261,-0.0571,-2.2092,-0.4538
1795.0,0.8651,-9.8457,0.6261,-0.0571,-2.2092,-0.4538
1801.0,0.7119,-9.8505,1.6355,-0.0571,-2.2092,-0.4538
1806.0,0.7119,-9.8505,1.6355,-0.0571,-2.2092,-0.4538
1810.0,0.7119,-9.8505,1.6355,-0.0571,-2.2092,-0.4538
1815.0,0.7119,-9.8505,1.6355,-0.0571,-2.2092,-0.4538
1821.0,0.7119,-9.8505,1.6355,-0.0571,-2.2092,-0.4538
1826.0,0.458,-9.86,1.9577,-0.0339,-1.9319,-0.4624
1831.0,0.458,-9.86,1.9577,-0.0339,-1.9319,-0.4624
1835.0,0.458,-9.86,1.9577,-0.0339,-1.9319,-0.4624
1840.0,0.458,-9.86,1.9577,-0.0339,-1.9319,-0.4624
1846.0,0.458,-9.86,1.9577,-0.0339,-1.9319,-0.4624
1850.0,0.458,-9.86,1.9577,-0.0339,-1.9319,-0.4624
1856.0,0.0461,-10.0078,1.6071,-0.0339,-1.9319,-0.4624
1860.0,0.0461,-10.0078,1.6071,0.0235,-0.8861,-0.397
1866.0,0.0461,-10.0078,1.6071,0.0235,-0.8861,-0.397
1870.0,0.0461,-10.0078,1.6071,0.0235,-0.8861,-0.397
1875.0,0.0461,-10.0078,1.6071,0.0235,-0.8861,-0.397
1881.0,-0.1694,-10.4273,1.408,0.0235,-0.8861,-0.397
1885.0,-0.1694,-10.4273,1.408,0.0235,-0.8861,-0.397
1890.0,-0.1694,-10.4273,1.408,0.04,-0.4817,-0.4587
1895.0,-0.1694,-10.4273,1.408,0.04,-0.4817,-0.4587
1900.0,-0.1694,-10.4273,1.408,0.04,-0.4817,-0.4587
1905.0,-0.1694,-10.4273,1.408,0.04,-0.4817,-0.4587
1910.0,-0.4902,-10.8277,1.2516,0.04,-0.4817,-0.4587
1915.0,-0.4902,-10.8277,1.2516,0.04,-0.4817,-0.4587
1920.0,-0.4902,-10.8277,1.2516,-0.0082,-0.2734,-0.3469
1925.0,-0.4902,-10.8277,1.2516,-0.0082,-0.2734,-0.3469
1930.0,-0.4902,-10.8277,1.2516,-0.0082,-0.2734,-0.3469
1936.0,-0.7872,-10.575,0.6782,-0.0082,-0.2734,-0.3469
1940.0,-0.7872,-10.575,0.6782,-0.0082,-0.2734,-0.3469
1945.0,-0.7872,-10.575,0.6782,-0.0082,-0.2734,-0.3469
1950.0,-0.7872,-10.575,0.6782,-0.0699,-0.4108,0.1265
1955.0,-0.7872,-10.575,0.6782,-0.0699,-0.4108,0.1265
1960.0,-1.041,-10.065,0.3559,-0.0699,-0.4108,0.1265
1966.0,-1.041,-10.065,0.3559,-0.0699,-0.4108,0.1265
1970.0,-1.041,-10.065,0.3559,-0.0699,-0.4108,0.1265
1975.0,-1.041,-10.065,0.3559,-0.0699,-0.4108,0.1265
1980.0,-1.041,-10.065,0.3559,-0.0699,-0.4108,0.1265
1985.0,-1.041,-10.065,0.3559,0.0694,-0.7859,0.424
1990.0,-1.2326,-9.9792,0.446,0.0694,-0.7859,0.424
1995.0,-1.2326,-9.9792,0.446,0.0694,-0.7859,0.424
2000.0,-1.2326,-9.9792,0.446,0.0694,-0.7859,0.424
2005.0,-1.2326,-9.9792,0.446,0.0694,-0.7859,0.424
2010.0,-1.2326,-9.9792,0.446,0.0694,-0.7859,0.424
2015.0,-1.2901,-9.8981,0.6782,0.263,-1.0119,0.5847
2020.0,-1.2901,-9.8981,0.6782,0.263,-1.0119,0.5847
2026.0,-1.2901,-9.8981,0.6782,0.263,-1.0119,0.5847
2030.0,-1.2901,-9.8981,0.6782,0.263,-1.0119,0.5847
2035.0,-1.2901,-9.8981,0.6782,0.263,-1.0119,0.5847
2040.0,-1.2901,-9.8981,0.6782,0.263,-1.0119,0.5847
2045.0,-1.156,-9.7027,0.337,0.263,-1.0119,0.5847
2050.0,-1.156,-9.7027,0.337,0.2092,-0.7902,0.6946
2056.0,-1.156,-9.7027,0.337,0.2092,-0.7902,0.6946
2061.0,-1.156,-9.7027,0.337,0.2092,-0.7902,0.6946
2065.0,-1.156,-9.7027,0.337,0.2092,-0.7902,0.6946
2070.0,-0.8159,-9.9696,-1.0089,0.2092,-0.7902,0.6946
2075.0,-0.8159,-9.9696,-1.0089,0.2092,-0.7902,0.6946
2080.0,-0.8159,-9.9696,-1.0089,0.0168,-0.0804,0.0892
2085.0,-0.8159,-9.9696,-1.0089,0.0168,-0.0804,0.0892
2090.0,-0.8159,-9.9696,-1.0089,0.0168,-0.0804,0.0892
2095.0,-0.4184,-9.6169,-1.9804,0.0168,-0.0804,0.0892
2100.0,-0.4184,-9.6169,-1.9804,0.0168,-0.0804,0.0892
2105.0,-0.4184,-9.6169,-1.9804,0.0168,-0.0804,0.0892
2110.0,-0.4184,-9.6169,-1.9804,0.0895,0.2306,-0.1771
2115.0,-0.4184,-9.6169,-1.9804,0.0895,0.2306,-0.1771
2120.0,-0.7776,-9.8219,-0.6866,0.0895,0.2306,-0.1771
2125.0,-0.7776,-9.8219,-0.6866,0.0895,0.2306,-0.1771
2131.0,-0.7776,-9.8219,-0.6866,0.0895,0.2306,-0.1771
2136.0,-0.7776,-9.8219,-0.6866,0.0895,0.2306,-0.1771
2140.0,-0.7776,-9.8219,-0.6866,0.0895,0.2306,-0.1771
2145.0,-0.7776,-9.8219,-0.6866,0.1921,-0.3119,-0.2211
2150.0,-1.0075,-9.4501,0.0432,0.1921,-0.3119,-0.2211
2155.0,-1.0075,-9.4501,0.0432,0.1921,-0.3119,-0.2211
2161.0,-1.0075,-9.4501,0.0432,0.1921,-0.3119,-0.2211
2165.0,-1.0075,-9.4501,0.0432,0.1921,-0.3119,-0.2211
2170.0,-1.0075,-9.4501,0.0432,0.1921,-0.3119,-0.2211
2175.0,-1.0602,-9.5264,0.3939,0.2526,-0.913,-0.1062
2180.0,-1.0602,-9.5264,0.3939,0.2526,-0.913,-0.1062
2186.0,-1.0602,-9.5264,0.3939,0.2526,-0.913,-0.1062
2191.0,-1.0602,-9.5264,0.3939,0.2526,-0.913,-0.1062
2195.0,-1.0602,-9.5264,0.3939,0.2526,-0.913,-0.1062
2200.0,-0.5094,-10.2461,0.6308,0.2526,-0.913,-0.1062
2205.0,-0.5094,-10.2461,0.6308,0.2764,-0.5971,0.1479
2210.0,-0.5094,-10.2461,0.6308,0.2764,-0.5971,0.1479
2215.0,-0.5094,-10.2461,0.6308,0.2764,-0.5971,0.1479
2220.0,-0.5094,-10.2461,0.6308,0.2764,-0.5971,0.1479
2225.0,-0.5094,-10.2461,0.6308,0.2764,-0.5971,0.1479
2231.0,-0.1933,-9.7647,0.1996,0.2764,-0.5971,0.1479
2235.0,-0.1933,-9.7647,0.1996,0.1445,0.2141,-0.0787
2240.0,-0.1933,-9.7647,0.1996,0.1445,0.2141,-0.0787
2245.0,-0.1933,-9.7647,0.1996,0.1445,0.2141,-0.0787
2250.0,-0.1933,-9.7647,0.1996,0.1445,0.2141,-0.0787
2255.0,-0.4567,-9.6646,-0.0421,0.1445,0.2141,-0.0787
2260.0,-0.4567,-9.6646,-0.0421,0.1445,0.2141,-0.0787
2265.0,-0.4567,-9.6646,-0.0421,0.1445,0.2141,-0.0787
2270.0,-0.4567,-9.6646,-0.0421,0.1653,0.3112,-0.0293
2276.0,-0.4567,-9.6646,-0.0421,0.1653,0.3112,-0.0293
2280.0,-0.792,-9.4405,-0.0469,0.1653,0.3112,-0.0293
2285.0,-0.792,-9.4405,-0.0469,0.1653,0.3112,-0.0293
2290.0,-0.792,-9.4405,-0.0469,0.1653,0.3112,-0.0293
2296.0,-0.792,-9.4405,-0.0469,0.1653,0.3112,-0.0293
2300.0,-0.792,-9.4405,-0.0469,0.2123,-0.2062,-0.058
2306.0,-0.792,-9.4405,-0.0469,0.2123,-0.2062,-0.058
2310.0,-0.9309,-9.3404,0.3654,0.2123,-0.2062,-0.058
2315.0,-0.9309,-9.3404,0.3654,0.2123,-0.2062,-0.058
2320.0,-0.9309,-9.3404,0.3654,0.2123,-0.2062,-0.058
2325.0,-0.9309,-9.3404,0.3654,0.2123,-0.2062,-0.058
2330.0,-0.9309,-9.3404,0.3654,0.2123,-0.2062,-0.058
2335.0,-0.9452,-9.4977,0.8772,0.227,-0.4347,0.03
2340.0,-0.9452,-9.4977,0.8772,0.227,-0.4347,0.03
2345.0,-0.9452,-9.4977,0.8772,0.227,-0.4347,0.03
2350.0,-0.9452,-9.4977,0.8772,0.227,-0.4347,0.03
2355.0,-0.9452,-9.4977,0.8772,0.227,-0.4347,0.03
2361.0,-0.9452,-9.4977,0.8772,0.227,-0.4347,0.03
2365.0,-0.677,-9.6074,1.0858,0.1708,-0.1677,0.154
2370.0,-0.677,-9.6074,1.0858,0.1708,-0.1677,0.154
2375.0,-0.677,-9.6074,1.0858,0.1708,-0.1677,0.154
2380.0,-0.677,-9.6074,1.0858,0.1708,-0.1677,0.154
2385.0,-0.677,-9.6074,1.0858,0.1708,-0.1677,0.154
2390.0,-0.5046,-9.4548,0.8393,0.1708,-0.1677,0.154
2395.0,-0.5046,-9.4548,0.8393,0.1042,0.1188,0.1118
2400.0,-0.5046,-9.4548,0.8393,0.1042,0.1188,0.1118
2405.0,-0.5046,-9.4548,0.8393,0.1042,0.1188,0.1118
2410.0,-0.5046,-9.4548,0.8393,0.1042,0.1188,0.1118
2415.0,-0.179,-9.145,0.5076,0.1042,0.1188,0.1118
2420.0,-0.179,-9.145,0.5076,0.1042,0.1188,0.1118
2425.0,-0.179,-9.145,0.5076,0.0223,0.0021,0.2224
2430.0,-0.179,-9.145,0.5076,0.0223,0.0021,0.2224
2436.0,-0.179,-9.145,0.5076,0.0223,0.0021,0.2224
2440.0,-0.179,-9.145,0.5076,0.0223,0.0021,0.2224
2446.0,-0.0448,-9.002,0.446,0.0223,0.0021,0.2224
2450.0,-0.0448,-9.002,0.446,0.0223,0.0021,0.2224
2455.0,-0.0448,-9.002,0.446,0.0223,0.0021,0.2224
2460.0,-0.0448,-9.002,0.446,-0.0858,-0.0162,0.1473
2465.0,-0.0448,-9.002,0.446,-0.0858,-0.0162,0.1473
2471.0,-0.5286,-9.083,0.754,-0.0858,-0.0162,0.1473
2475.0,-0.5286,-9.083,0.754,-0.0858,-0.0162,0.1473
2480.0,-0.5286,-9.083,0.754,-0.0858,-0.0162,0.1473
2485.0,-0.5286,-9.083,0.754,-0.0858,-0.0162,0.1473
2491.0,-0.5286,-9.083,0.754,-0.1334,0.1872,0.1674
2495.0,-1.3571,-9.2594,0.4649,-0.1334,0.1872,0.1674
2500.0,-1.3571,-9.2594,0.4649,-0.1334,0.1872,0.1674
2505.0,-1.3571,-9.2594,0.4649,-0.1334,0.1872,0.1674
2511.0,-1.3571,-9.2594,0.4649,-0.1334,0.1872,0.1674
2515.0,-1.3571,-9.2594,0.4649,-0.1334,0.1872,0.1674
2521.0,-1.7881,-9.4739,-0.208,-0.0278,0.1665,0.3568
2525.0,-1.7881,-9.4739,-0.208,-0.0278,0.1665,0.3568
2530.0,-1.7881,-9.4739,-0.208,-0.0278,0.1665,0.3568
2535.0,-1.7881,-9.4739,-0.208,-0.0278,0.1665,0.3568
2540.0,-1.7881,-9.4739,-0.208,-0.0278,0.1665,0.3568
2545.0,-1.7881,-9.4739,-0.208,-0.0278,0.1665,0.3568
2550.0,-1.3906,-9.5311,0.318,0.0248,-0.3271,0.3367
2556.0,-1.3906,-9.5311,0.318,0.0248,-0.3271,0.3367
2560.0,-1.3906,-9.5311,0.318,0.0248,-0.3271,0.3367
2566.0,-1.3906,-9.5311,0.318,0.0248,-0.3271,0.3367
2570.0,-1.3906,-9.5311,0.318,0.0248,-0.3271,0.3367
2575.0,-1.3906,-9.5311,0.318,0.0248,-0.3271,0.3367
2580.0,-1.4768,-9.8076,0.7967,0.0248,-0.3271,0.3367
2585.0,-1.4768,-9.8076,0.7967,0.012,0.1573,0.7899
2591.0,-1.4768,-9.8076,0.7967,0.012,0.1573,0.7899
2595.0,-1.4768,-9.8076,0.7967,0.012,0.1573,0.7899
2600.0,-1.4768,-9.8076,0.7967,0.012,0.1573,0.7899
2606.0,-0.7968,-9.35,0.1474,0.012,0.1573,0.7899
2610.0,-0.7968,-9.35,0.1474,0.012,0.1573,0.7899
2615.0,-0.7968,-9.35,0.1474,0.1604,1.2672,0.5303
2620.0,-0.7968,-9.35,0.1474,0.1604,1.2672,0.5303
2625.0,-0.7968,-9.35,0.1474,0.1604,1.2672,0.5303
2630.0,0.8364,-9.4405,-1.1558,0.1604,1.2672,0.5303
2635.0,0.8364,-9.4405,-1.1558,0.1604,1.2672,0.5303
2640.0,0.8364,-9.4405,-1.1558,0.1604,1.2672,0.5303
2645.0,0.8364,-9.4405,-1.1558,0.1274,1.0235,0.6348
2651.0,0.8364,-9.4405,-1.1558,0.1274,1.0235,0.6348
2656.0,2.1917,-10.0984,-2.8571,0.1274,1.0235,0.6348
2660.0,2.1917,-10.0984,-2.8571,0.1274,1.0235,0.6348
2665.0,2.1917,-10.0984,-2.8571,0.1274,1.0235,0.6348
2671.0,2.1917,-10.0984,-2.8571,0.1274,1.0235,0.6348
2675.0,2.1917,-10.0984,-2.8571,0.1274,1.0235,0.6348
2680.0,2.1917,-10.0984,-2.8571,-0.2342,-0.1402,0.2084
2685.0,1.5452,-12.2863,-2.1368,-0.2342,-0.1402,0.2084
2690.0,1.5452,-12.2863,-2.1368,-0.2342,-0.1402,0.2084
2696.0,1.5452,-12.2863,-2.1368,-0.2342,-0.1402,0.2084
2700.0,1.5452,-12.2863,-2.1368,-0.2342,-0.1402,0.2084
2706.0,1.5452,-12.2863,-2.1368,-0.2342,-0.1402,0.2084
2710.0,1.5452,-12.2863,-2.1368,-0.0894,-1.7083,-0.2394
2715.0,-2.2431,-13.8784,2.0573,-0.0894,-1.7083,-0.2394
2720.0,-2.2431,-13.8784,2.0573,-0.0894,-1.7083,-0.2394
2725.0,-2.2431,-13.8784,2.0573,-0.0894,-1.7083,-0.2394
2731.0,-2.2431,-13.8784,2.0573,-0.0894,-1.7083,-0.2394
2738.0,-2.2431,-13.8784,2.0573,0.9374,-1.4652,-0.7709
2741.0,-3.8331,-14.8556,3.8486,0.9374,-1.4652,-0.7709
2745.0,-3.8331,-14.8556,3.8486,0.9374,-1.4652,-0.7709
2750.0,-3.8331,-14.8556,3.8486,0.9374,-1.4652,-0.7709
2755.0,-3.8331,-14.8556,3.8486,0.9374,-1.4652,-0.7709
2761.0,-3.8331,-14.8556,3.8486,0.9374,-1.4652,-0.7709
2765.0,-3.8331,-14.8556,3.8486,0.9374,-1.4652,-0.7709
2770.0,-3.7996,-14.1216,2.8013,1.6772,-0.5696,-1.0842
2775.0,-3.7996,-14.1216,2.8013,1.6772,-0.5696,-1.0842
2780.0,-3.7996,-14.1216,2.8013,1.6772,-0.5696,-1.0842
2785.0,-3.7996,-14.1216,2.8013,1.6772,-0.5696,-1.0842
2790.0,-3.7996,-14.1216,2.8013,1.6772,-0.5696,-1.0842
2795.0,-0.6914,-10.7085,0.6924,1.6772,-0.5696,-1.0842
2800.0,-0.6914,-10.7085,0.6924,0.7939,-2.0162,-0.5784
2805.0,-0.6914,-10.7085,0.6924,0.7939,-2.0162,-0.5784
2810.0,-0.6914,-10.7085,0.6924,0.7939,-2.0162,-0.5784
2816.0,-0.6914,-10.7085,0.6924,0.7939,-2.0162,-0.5784
2820.0,1.2722,-9.8648,1.2564,0.7939,-2.0162,-0.5784
2826.0,1.2722,-9.8648,1.2564,0.7939,-2.0162,-0.5784
2830.0,1.2722,-9.8648,1.2564,-0.2031,-3.2917,0.606
2836.0,1.2722,-9.8648,1.2564,-0.2031,-3.2917,0.606
2841.0,1.2722,-9.8648,1.2564,-0.2031,-3.2917,0.606
2845.0,1.2722,-9.8648,1.2564,-0.2031,-3.2917,0.606
2850.0,2.6419,-9.8267,2.6876,-0.2031,-3.2917,0.606
2855.0,2.6419,-9.8267,2.6876,-0.2031,-3.2917,0.606
2861.0,2.6419,-9.8267,2.6876,-0.9948,-0.4279,1.2114
2865.0,2.6419,-9.8267,2.6876,-0.9948,-0.4279,1.2114
2870.0,2.6419,-9.8267,2.6876,-0.9948,-0.4279,1.2114
2875.0,2.9819,-8.8971,3.0809,-0.9948,-0.4279,1.2114
2880.0,2.9819,-8.8971,3.0809,-0.9948,-0.4279,1.2114
2885.0,2.9819,-8.8971,3.0809,-0.9948,-0.4279,1.2114
2891.0,2.9819,-8.8971,3.0809,-0.9948,-0.4279,1.2114
2895.0,2.9819,-8.8971,3.0809,-1.029,2.1548,0.1803
2900.0,1.4398,-9.4119,0.7825,-1.029,2.1548,0.1803
2906.0,1.4398,-9.4119,0.7825,-1.029,2.1548,0.1803
2910.0,1.4398,-9.4119,0.7825,-1.029,2.1548,0.1803
2916.0,1.4398,-9.4119,0.7825,-1.029,2.1548,0.1803
2920.0,1.4398,-9.4119,0.7825,-1.029,2.1548,0.1803
2925.0,-0.428,-9.9649,0.4697,-0.3118,0.7608,-0.488
2930.0,-0.428,-9.9649,0.4697,-0.3118,0.7608,-0.488
2935.0,-0.428,-9.9649,0.4697,-0.3118,0.7608,-0.488
2940.0,-0.428,-9.9649,0.4697,-0.3118,0.7608,-0.488
2945.0,-0.428,-9.9649,0.4697,-0.3118,0.7608,-0.488
2950.0,-0.428,-9.9649,0.4697,-0.3118,0.7608,-0.488
2956.0,-1.654,-8.7351,-1.0136,0.1976,-0.1579,-1.2009
2961.0,-1.654,-8.7351,-1.0136,0.1976,-0.1579,-1.2009
2965.0,-1.654,-8.7351,-1.0136,0.1976,-0.1579,-1.2009
2971.0,-1.654,-8.7351,-1.0136,0.1976,-0.1579,-1.2009
2975.0,-1.654,-8.7351,-1.0136,0.1976,-0.1579,-1.2009
2980.0,-1.654,-8.7351,-1.0136,0.1976,-0.1579,-1.2009
2986.0,-1.6013,-6.366,-0.8194,0.0858,-0.3204,-1.496
2990.0,-1.6013,-6.366,-0.8194,0.0858,-0.3204,-1.496
2996.0,-1.6013,-6.366,-0.8194,0.0858,-0.3204,-1.496
3001.0,-1.6013,-6.366,-0.8194,0.0858,-0.3204,-1.496
3006.0,-1.6013,-6.366,-0.8194,0.0858,-0.3204,-1.496
3010.0,-1.6013,-6.366,-0.8194,0.0858,-0.3204,-1.496
3015.0,-1.5726,-8.4252,-1.8288,0.0858,-0.3204,-1.496
3020.0,-1.5726,-8.4252,-1.8288,-0.2214,-1.1677,-0.2644
3025.0,-1.5726,-8.4252,-1.8288,-0.2214,-1.1677,-0.2644
3031.0,-1.5726,-8.4252,-1.8288,-0.2214,-1.1677,-0.2644
3035.0,-1.5726,-8.4252,-1.8288,-0.2214,-1.1677,-0.2644
3040.0,-1.0745,-8.5205,-0.3644,-0.2214,-1.1677,-0.2644
3045.0,-1.0745,-8.5205,-0.3644,-0.2214,-1.1677,-0.2644
3051.0,-1.0745,-8.5205,-0.3644,-0.0968,-1.9062,-0.6053
3057.0,-1.0745,-8.5205,-0.3644,-0.0968,-1.9062,-0.6053
3060.0,-1.0745,-8.5205,-0.3644,-0.0968,-1.9062,-0.6053
3065.0,-1.0745,-8.5205,-0.3644,-0.0968,-1.9062,-0.6053
3070.0,-0.6291,-8.94,1.9814,-0.0968,-1.9062,-0.6053
3076.0,-0.6291,-8.94,1.9814,-0.0968,-1.9062,-0.6053
3080.0,-0.6291,-8.94,1.9814,-0.0968,-1.9062,-0.6053
3086.0,-0.6291,-8.94,1.9814,0.0132,-1.1683,-0.7061
3091.0,-0.6291,-8.94,1.9814,0.0132,-1.1683,-0.7061
3096.0,-0.7632,-9.083,2.3937,0.0132,-1.1683,-0.7061
3101.0,-0.7632,-9.083,2.3937,0.0132,-1.1683,-0.7061
3105.0,-0.7632,-9.083,2.3937,0.0132,-1.1683,-0.7061
3110.0,-0.7632,-9.083,2.3937,0.0132,-1.1683,-0.7061
3116.0,-0.7632,-9.083,2.3937,0.0016,0.2275,-0.642
3120.0,-0.5477,-9.0926,0.9389,0.0016,0.2275,-0.642
3125.0,-0.5477,-9.0926,0.9389,0.0016,0.2275,-0.642
3130.0,-0.5477,-9.0926,0.9389,0.0016,0.2275,-0.642
3135.0,-0.5477,-9.0926,0.9389,0.0016,0.2275,-0.642
3140.0,-0.5477,-9.0926,0.9389,0.0016,0.2275,-0.642
3145.0,-1.9462,-10.5369,-2.9235,0.0651,1.4645,-0.7275
3150.0,-1.9462,-10.5369,-2.9235,0.0651,1.4645,-0.7275
3156.0,-1.9462,-10.5369,-2.9235,0.0651,1.4645,-0.7275
3160.0,-1.9462,-10.5369,-2.9235,0.0651,1.4645,-0.7275
3165.0,-1.9462,-10.5369,-2.9235,0.0651,1.4645,-0.7275
3170.0,-3.2297,-12.2101,-7.2218,0.0651,1.4645,-0.7275
3175.0,-3.2297,-12.2101,-7.2218,0.5452,0.2678,-1.6542
3180.0,-3.2297,-12.2101,-7.2218,0.5452,0.2678,-1.6542
3185.0,-3.2297,-12.2101,-7.2218,0.5452,0.2678,-1.6542
3190.0,-3.2297,-12.2101,-7.2218,0.5452,0.2678,-1.6542
3196.0,-3.2297,-12.2101,-7.2218,0.5452,0.2678,-1.6542
3200.0,0.3766,-10.9945,-4.8239,0.5452,0.2678,-1.6542
3206.0,0.3766,-10.9945,-4.8239,0.2929,-3.252,-2.0744
3210.0,0.3766,-10.9945,-4.8239,0.2929,-3.252,-2.0744
3215.0,0.3766,-10.9945,-4.8239,0.2929,-3.252,-2.0744
3220.0,0.3766,-10.9945,-4.8239,0.2929,-3.252,-2.0744
3225.0,-0.0975,-11.209,-1.0468,0.2929,-3.252,-2.0744
3231.0,-0.0975,-11.209,-1.0468,0.2929,-3.252,-2.0744
3236.0,-0.0975,-11.209,-1.0468,-0.1634,-2.0962,-2.1257
3241.0,-0.0975,-11.209,-1.0468,-0.1634,-2.0962,-2.1257
3246.0,-0.0975,-11.209,-1.0468,-0.1634,-2.0962,-2.1257
3250.0,-0.0975,-11.209,-1.0468,-0.1634,-2.0962,-2.1257
3255.0,-0.6579,-10.5321,-0.7482,-0.1634,-2.0962,-2.1257
3260.0,-0.6579,-10.5321,-0.7482,-0.1634,-2.0962,-2.1257
3265.0,-0.6579,-10.5321,-0.7482,-0.1634,-2.0962,-2.1257
3270.0,-0.6579,-10.5321,-0.7482,-0.0241,0.8091,-2.5631
3275.0,-0.6579,-10.5321,-0.7482,-0.0241,0.8091,-2.5631
3280.0,0.6113,-10.4749,-1.9804,-0.0241,0.8091,-2.5631
3286.0,0.6113,-10.4749,-1.9804,-0.0241,0.8091,-2.5631
3291.0,0.6113,-10.4749,-1.9804,-0.0241,0.8091,-2.5631
3295.0,0.6113,-10.4749,-1.9804,-0.0241,0.8091,-2.5631
3300.0,0.6113,-10.4749,-1.9804,-0.0296,1.2929,-2.7879
3305.0,-0.1741,-11.3091,-1.6534,-0.0296,1.2929,-2.7879
3310.0,-0.1741,-11.3091,-1.6534,-0.0296,1.2929,-2.7879
3315.0,-0.1741,-11.3091,-1.6534,-0.0296,1.2929,-2.7879
3320.0,-0.1741,-11.3091,-1.6534,-0.0296,1.2929,-2.7879
3325.0,-0.1741,-11.3091,-1.6534,-0.0296,1.2929,-2.7879
3330.0,-0.1741,-11.3091,-1.6534,-0.0296,1.2929,-2.7879
3335.0,-1.2517,-11.5475,-2.478,0.2844,1.3643,-2.9382
3340.0,-1.2517,-11.5475,-2.478,0.2844,1.3643,-2.9382
3345.0,-1.2517,-11.5475,-2.478,0.2844,1.3643,-2.9382
3350.0,-1.2517,-11.5475,-2.478,0.2844,1.3643,-2.9382
3355.0,-1.2517,-11.5475,-2.478,0.2844,1.3643,-2.9382
3360.0,-2.6023,-11.8049,-4.8286,0.2844,1.3643,-2.9382
3366.0,-2.6023,-11.8049,-4.8286,0.3949,1.0675,-2.6621
3370.0,-2.6023,-11.8049,-4.8286,0.3949,1.0675,-2.6621
3375.0,-2.6023,-11.8049,-4.8286,0.3949,1.0675,-2.6621
3380.0,-2.6023,-11.8049,-4.8286,0.3949,1.0675,-2.6621
3386.0,-2.6023,-11.8049,-4.8286,0.3949,1.0675,-2.6621
3391.0,-1.836,-11.9145,-5.421,0.3949,1.0675,-2.6621
3395.0,-1.836,-11.9145,-5.421,1.0632,0.8983,-2.725
3401.0,-1.836,-11.9145,-5.421,1.0632,0.8983,-2.725
3406.0,-1.836,-11.9145,-5.421,1.0632,0.8983,-2.725
3410.0,-1.836,-11.9145,-5.421,1.0632,0.8983,-2.725
3416.0,0.4006,-8.7255,-5.402,1.0632,0.8983,-2.725
3420.0,0.4006,-8.7255,-5.402,1.0632,0.8983,-2.725
3425.0,0.4006,-8.7255,-5.402,1.0632,0.8983,-2.725
3431.0,0.4006,-8.7255,-5.402,0.8305,1.6667,-2.8527
3435.0,0.4006,-8.7255,-5.402,0.8305,1.6667,-2.8527
3440.0,1.4446,-6.4041,-4.2931,0.8305,1.6667,-2.8527
3445.0,1.4446,-6.4041,-4.2931,0.8305,1.6667,-2.8527
3450.0,1.4446,-6.4041,-4.2931,0.8305,1.6667,-2.8527
3455.0,1.4446,-6.4041,-4.2931,0.8305,1.6667,-2.8527
3460.0,1.4446,-6.4041,-4.2931,0.3601,1.5885,-2.5326
3465.0,1.4446,-6.4041,-4.2931,0.3601,1.5885,-2.5326
3470.0,1.0662,-5.4698,-3.7007,0.3601,1.5885,-2.5326
3475.0,1.0662,-5.4698,-3.7007,0.3601,1.5885,-2.5326
3480.0,1.0662,-5.4698,-3.7007,0.3601,1.5885,-2.5326
3486.0,1.0662,-5.4698,-3.7007,0.3601,1.5885,-2.5326
3490.0,1.0662,-5.4698,-3.7007,0.3784,1.2703,-2.0897
3495.0,0.2329,-4.5546,-4.6674,0.3784,1.2703,-2.0897
3501.0,0.2329,-4.5546,-4.6674,0.3784,1.2703,-2.0897
3508.0,0.2329,-4.5546,-4.6674,0.3784,1.2703,-2.0897
3510.0,0.2329,-4.5546,-4.6674,0.3784,1.2703,-2.0897
3515.0,0.2329,-4.5546,-4.6674,0.3784,1.2703,-2.0897
3520.0,0.003,-3.482,-5.7432,0.318,0.6307,-1.4636
3525.0,0.003,-3.482,-5.7432,0.318,0.6307,-1.4636
3530.0,0.003,-3.482,-5.7432,0.318,0.6307,-1.4636
3535.0,0.003,-3.482,-5.7432,0.318,0.6307,-1.4636
3540.0,0.003,-3.482,-5.7432,0.318,0.6307,-1.4636
3545.0,0.003,-3.482,-5.7432,0.318,0.6307,-1.4636
3550.0,-0.1694,-3.6918,-4.9091,0.2239,0.1218,-0.6694
3555.0,-0.1694,-3.6918,-4.9091,0.2239,0.1218,-0.6694
3560.0,-0.1694,-3.6918,-4.9091,0.2239,0.1218,-0.6694
3565.0,-0.1694,-3.6918,-4.9091,0.2239,0.1218,-0.6694
3570.0,-0.1694,-3.6918,-4.9091,0.2239,0.1218,-0.6694
3575.0,0.2712,-3.8443,-4.5727,0.2239,0.1218,-0.6694
3580.0,0.2712,-3.8443,-4.5727,0.2239,0.1218,-0.6694
3585.0,0.2712,-3.8443,-4.5727,0.3058,0.2984,-0.0848
3590.0,0.2712,-3.8443,-4.5727,0.3058,0.2984,-0.0848
3595.0,0.2712,-3.8443,-4.5727,0.3058,0.2984,-0.0848
3601.0,0.2712,-3.8443,-4.5727,0.3058,0.2984,-0.0848
3605.0,0.3718,-2.9148,-4.5158,0.3058,0.2984,-0.0848
3610.0,0.3718,-2.9148,-4.5158,0.3058,0.2984,-0.0848
3616.0,0.3718,-2.9148,-4.5158,0.362,0.1322,0.5278
3621.0,0.3718,-2.9148,-4.5158,0.362,0.1322,0.5278
3625.0,0.3718,-2.9148,-4.5158,0.362,0.1322,0.5278
3630.0,0.8891,-1.3084,-4.658,0.362,0.1322,0.5278
3635.0,0.8891,-1.3084,-4.658,0.362,0.1322,0.5278
3640.0,0.8891,-1.3084,-4.658,0.362,0.1322,0.5278
3646.0,0.8891,-1.3084,-4.658,0.1811,0.2251,1.0801
3650.0,0.8891,-1.3084,-4.658,0.1811,0.2251,1.0801
3655.0,0.0174,-0.3264,-6.8664,0.1811,0.2251,1.0801
3660.0,0.0174,-0.3264,-6.8664,0.1811,0.2251,1.0801
3665.0,0.0174,-0.3264,-6.8664,0.1811,0.2251,1.0801
3670.0,0.0174,-0.3264,-6.8664,0.1811,0.2251,1.0801
3675.0,0.0174,-0.3264,-6.8664,0.2007,0.2581,1.8156
3680.0,0.0174,-0.3264,-6.8664,0.2007,0.2581,1.8156
3686.0,-3.0046,-3.2914,-9.2833,0.2007,0.2581,1.8156
3691.0,-3.0046,-3.2914,-9.2833,0.2007,0.2581,1.8156
3695.0,-3.0046,-3.2914,-9.2833,0.2007,0.2581,1.8156
3700.0,-3.0046,-3.2914,-9.2833,0.2007,0.2581,1.8156
3705.0,-3.0046,-3.2914,-9.2833,0.3815,0.084,1.953
3710.0,-3.8379,-5.9846,-14.7095,0.3815,0.084,1.953
3715.0,-3.8379,-5.9846,-14.7095,0.3815,0.084,1.953
3720.0,-3.8379,-5.9846,-14.7095,0.3815,0.084,1.953
3725.0,-3.8379,-5.9846,-14.7095,0.3815,0.084,1.953
3730.0,-3.8379,-5.9846,-14.7095,0.3815,0.084,1.953
3735.0,2.5653,-9.2785,-7.3261,-0.2019,-3.051,1.4631
3740.0,2.5653,-9.2785,-7.3261,-0.2019,-3.051,1.4631
3745.0,2.5653,-9.2785,-7.3261,-0.2019,-3.051,1.4631
3750.0,2.5653,-9.2785,-7.3261,-0.2019,-3.051,1.4631
3755.0,2.5653,-9.2785,-7.3261,-0.2019,-3.051,1.4631
3761.0,2.5653,-9.2785,-7.3261,-0.2019,-3.051,1.4631
3765.0,9.6438,-12.7344,-3.2173,-0.2019,-3.051,1.4631
3771.0,9.6438,-12.7344,-3.2173,-2.3179,-0.8238,0.6842
3776.0,9.6438,-12.7344,-3.2173,-2.3179,-0.8238,0.6842
3780.0,9.6438,-12.7344,-3.2173,-2.3179,-0.8238,0.6842
3785.0,9.6438,-12.7344,-3.2173,-2.3179,-0.8238,0.6842
3790.0,5.7549,-17.2438,-14.6479,-2.3179,-0.8238,0.6842
3795.0,5.7549,-17.2438,-14.6479,-2.3179,-0.8238,0.6842
3800.0,5.7549,-17.2438,-14.6479,-1.7382,3.244,0.3806
3805.0,5.7549,-17.2438,-14.6479,-1.7382,3.244,0.3806
3810.0,5.7549,-17.2438,-14.6479,-1.7382,3.244,0.3806
3815.0,0.2521,-8.0439,-4.1367,-1.7382,3.244,0.3806
3820.0,0.2521,-8.0439,-4.1367,-1.7382,3.244,0.3806
3825.0,0.2521,-8.0439,-4.1367,-1.7382,3.244,0.3806
3830.0,0.2521,-8.0439,-4.1367,-0.2092,-3.1029,2.1015
3835.0,0.2521,-8.0439,-4.1367,-0.2092,-3.1029,2.1015
3840.0,0.2521,-8.0439,-4.1367,-0.2092,-3.1029,2.1015
3845.0,-0.1215,-3.2151,1.2564,-0.2092,-3.1029,2.1015
3850.0,-0.1215,-3.2151,1.2564,-0.2092,-3.1029,2.1015
3855.0,-0.1215,-3.2151,1.2564,-0.2092,-3.1029,2.1015
3860.0,-0.1215,-3.2151,1.2564,-0.4627,-3.2783,2.7496
3865.0,-0.1215,-3.2151,1.2564,-0.4627,-3.2783,2.7496
3870.0,-1.9701,-6.6138,-1.8288,-0.4627,-3.2783,2.7496
3875.0,-1.9701,-6.6138,-1.8288,-0.4627,-3.2783,2.7496
3880.0,-1.9701,-6.6138,-1.8288,-0.4627,-3.2783,2.7496
3885.0,-1.9701,-6.6138,-1.8288,-0.4627,-3.2783,2.7496
3890.0,-1.9701,-6.6138,-1.8288,-0.1628,-2.3949,2.2273
3895.0,-1.9701,-6.6138,-1.8288,-0.1628,-2.3949,2.2273
3900.0,0.1563,-13.54,-1.4402,-0.1628,-2.3949,2.2273
3905.0,0.1563,-13.54,-1.4402,-0.1628,-2.3949,2.2273
3911.0,0.1563,-13.54,-1.4402,-0.1628,-2.3949,2.2273
3915.0,0.1563,-13.54,-1.4402,-0.1628,-2.3949,2.2273
3920.0,0.1563,-13.54,-1.4402,-0.1628,-2.3949,2.2273
3925.0,-0.5525,-16.7385,-2.0562,-0.638,-0.61,1.9005
3930.0,-0.5525,-16.7385,-2.0562,-0.638,-0.61,1.9005
3935.0,-0.5525,-16.7385,-2.0562,-0.638,-0.61,1.9005
3941.0,-0.5525,-16.7385,-2.0562,-0.638,-0.61,1.9005
3946.0,-0.5525,-16.7385,-2.0562,-0.638,-0.61,1.9005
3950.0,-2.1234,-12.2911,-1.4402,-0.638,-0.61,1.9005
3955.0,-2.1234,-12.2911,-1.4402,-0.638,-0.61,1.9005
3960.0,-2.1234,-12.2911,-1.4402,-0.3448,0.6649,1.5999
3965.0,-2.1234,-12.2911,-1.4402,-0.3448,0.6649,1.5999
3970.0,-2.1234,-12.2911,-1.4402,-0.3448,0.6649,1.5999
3975.0,-2.1234,-12.2911,-1.4402,-0.3448,0.6649,1.5999
3980.0,-1.0697,-8.6779,-1.1037,-0.3448,0.6649,1.5999
3985.0,-1.0697,-8.6779,-1.1037,-0.3448,0.6649,1.5999
3990.0,-1.0697,-8.6779,-1.1037,0.1274,0.5806,1.7258
3995.0,-1.0697,-8.6779,-1.1037,0.1274,0.5806,1.7258
4000.0,-1.0697,-8.6779,-1.1037,0.1274,0.5806,1.7258
4005.0,-0.8159,-7.2907,-1.9425,0.1274,0.5806,1.7258
4010.0,-0.8159,-7.2907,-1.9425,0.1274,0.5806,1.7258
4015.0,-0.8159,-7.2907,-1.9425,0.1274,0.5806,1.7258
4021.0,-0.8159,-7.2907,-1.9425,0.0474,0.2972,1.6934
4026.0,-0.8159,-7.2907,-1.9425,0.0474,0.2972,1.6934
4030.0,-0.5477,-6.6424,-2.2885,0.0474,0.2972,1.6934
4035.0,-0.5477,-6.6424,-2.2885,0.0474,0.2972,1.6934
4040.0,-0.5477,-6.6424,-2.2885,0.0474,0.2972,1.6934
4045.0,-0.5477,-6.6424,-2.2885,0.0474,0.2972,1.6934
4051.0,-0.5477,-6.6424,-2.2885,-0.3405,0.6955,1.4429
4055.0,-0.5477,-6.6424,-2.2885,-0.3405,0.6955,1.4429
4060.0,-0.2939,-7.0428,-1.9709,-0.3405,0.6955,1.4429
4065.0,-0.2939,-7.0428,-1.9709,-0.3405,0.6955,1.4429
4070.0,-0.2939,-7.0428,-1.9709,-0.3405,0.6955,1.4429
4075.0,-0.2939,-7.0428,-1.9709,-0.3405,0.6955,1.4429
4080.0,-0.2939,-7.0428,-1.9709,-0.2049,1.4083,1.2218
4085.0,-0.1741,-8.921,-1.2222,-0.2049,1.4083,1.2218
4090.0,-0.1741,-8.921,-1.2222,-0.2049,1.4083,1.2218
4095.0,-0.1741,-8.921,-1.2222,-0.2049,1.4083,1.2218
4100.0,-0.1741,-8.921,-1.2222,-0.2049,1.4083,1.2218
4105.0,-0.1741,-8.921,-1.2222,-0.2049,1.4083,1.2218
4110.0,-0.1741,-8.921,-1.2222,-0.2049,1.4083,1.2218
4115.0,-0.2795,-8.9114,-1.3312,0.2416,1.3967,1.198
4120.0,-0.2795,-8.9114,-1.3312,0.2416,1.3967,1.198
4125.0,-0.2795,-8.9114,-1.3312,0.2416,1.3967,1.198
4130.0,-0.2795,-8.9114,-1.3312,0.2416,1.3967,1.198
4135.0,-0.2795,-8.9114,-1.3312,0.2416,1.3967,1.198
4141.0,-0.2795,-8.9114,-1.3312,0.2416,1.3967,1.198
4145.0,-0.9979,-8.5777,-0.9757,0.3491,0.8115,1.4155
4151.0,-0.9979,-8.5777,-0.9757,0.3491,0.8115,1.4155
4155.0,-0.9979,-8.5777,-0.9757,0.3491,0.8115,1.4155
4160.0,-0.9979,-8.5777,-0.9757,0.3491,0.8115,1.4155
4166.0,-0.9979,-8.5777,-0.9757,0.3491,0.8115,1.4155
4171.0,-1.6301,-8.4109,-0.4781,0.3491,0.8115,1.4155
4175.0,-1.6301,-8.4109,-0.4781,0.3675,0.0907,1.3965
4180.0,-1.6301,-8.4109,-0.4781,0.3675,0.0907,1.3965
4185.0,-1.6301,-8.4109,-0.4781,0.3675,0.0907,1.3965
4190.0,-1.6301,-8.4109,-0.4781,0.3675,0.0907,1.3965
4195.0,-1.6301,-8.4109,-0.4781,0.3675,0.0907,1.3965
4200.0,-2.0515,-8.5205,0.5029,0.3675,0.0907,1.3965
4205.0,-2.0515,-8.5205,0.5029,0.3675,0.0907,1.3965
4210.0,-2.0515,-8.5205,0.5029,0.5074,-0.015,1.3446
4215.0,-2.0515,-8.5205,0.5029,0.5074,-0.015,1.3446
4220.0,-2.0515,-8.5205,0.5029,0.5074,-0.015,1.3446
4225.0,-2.0372,-8.7065,1.2421,0.5074,-0.015,1.3446
4230.0,-2.0372,-8.7065,1.2421,0.5074,-0.015,1.3446
4235.0,-2.0372,-8.7065,1.2421,0.5074,-0.015,1.3446
4240.0,-2.0372,-8.7065,1.2421,0.7792,0.3351,1.4442
4245.0,-2.0372,-8.7065,1.2421,0.7792,0.3351,1.4442
4250.0,-1.9653,-9.7647,1.1805,0.7792,0.3351,1.4442
4255.0,-1.9653,-9.7647,1.1805,0.7792,0.3351,1.4442
4260.0,-1.9653,-9.7647,1.1805,0.7792,0.3351,1.4442
4265.0,-1.9653,-9.7647,1.1805,0.7792,0.3351,1.4442
4270.0,-1.9653,-9.7647,1.1805,0.9093,0.6454,1.4753
4275.0,-1.9653,-9.7647,1.1805,0.9093,0.6454,1.4753
4280.0,-1.4768,-12.9298,0.6403,0.9093,0.6454,1.4753
4285.0,-1.4768,-12.9298,0.6403,0.9093,0.6454,1.4753
4290.0,-1.4768,-12.9298,0.6403,0.9093,0.6454,1.4753
4295.0,-1.4768,-12.9298,0.6403,0.9093,0.6454,1.4753
4301.0,-1.4768,-12.9298,0.6403,0.9411,0.5922,0.8003
4305.0,1.3776,-17.7968,-9.9278,0.9411,0.5922,0.8003
4310.0,1.3776,-17.7968,-9.9278,0.9411,0.5922,0.8003
4316.0,1.3776,-17.7968,-9.9278,0.9411,0.5922,0.8003
4320.0,1.3776,-17.7968,-9.9278,0.9411,0.5922,0.8003
4325.0,1.3776,-17.7968,-9.9278,0.9411,0.5922,0.8003
4330.0,1.9666,-7.9485,-10.8519,0.4701,2.0052,-0.7305
4335.0,1.9666,-7.9485,-10.8519,0.4701,2.0052,-0.7305
4341.0,1.9666,-7.9485,-10.8519,0.4701,2.0052,-0.7305
4345.0,1.9666,-7.9485,-10.8519,0.4701,2.0052,-0.7305
4350.0,1.9666,-7.9485,-10.8519,0.4701,2.0052,-0.7305
4355.0,1.9666,-7.9485,-10.8519,0.4701,2.0052,-0.7305
4361.0,-0.6914,-9.7456,-1.516,-0.3216,-3.8299,-0.6823
4367.0,-0.6914,-9.7456,-1.516,-0.3216,-3.8299,-0.6823
4371.0,-0.6914,-9.7456,-1.516,-0.3216,-3.8299,-0.6823
4375.0,-0.6914,-9.7456,-1.516,-0.3216,-3.8299,-0.6823
4380.0,-0.6914,-9.7456,-1.516,-0.3216,-3.8299,-0.6823
4386.0,-1.0793,-10.4463,3.8107,-0.3216,-3.8299,-0.6823
4390.0,-1.0793,-10.4463,3.8107,0.1775,-5.106,-0.4795
4395.0,-1.0793,-10.4463,3.8107,0.1775,-5.106,-0.4795
4400.0,-1.0793,-10.4463,3.8107,0.1775,-5.106,-0.4795
4405.0,-1.0793,-10.4463,3.8107,0.1775,-5.106,-0.4795
4410.0,-1.0793,-10.4463,3.8107,0.1775,-5.106,-0.4795
4416.0,-1.5966,-10.1079,5.7964,0.1775,-5.106,-0.4795
4420.0,-1.5966,-10.1079,5.7964,0.6589,-1.9111,-0.3817
4425.0,-1.5966,-10.1079,5.7964,0.6589,-1.9111,-0.3817
4430.0,-1.5966,-10.1079,5.7964,0.6589,-1.9111,-0.3817
4435.0,-1.5966,-10.1079,5.7964,0.6589,-1.9111,-0.3817
4441.0,-1.4816,-8.5158,4.4742,0.6589,-1.9111,-0.3817
4445.0,-1.4816,-8.5158,4.4742,0.6589,-1.9111,-0.3817
4450.0,-1.4816,-8.5158,4.4742,0.6589,-1.9111,-0.3817
4455.0,-1.4816,-8.5158,4.4742,-2.0E-4,1.2422,0.763
4461.0,-1.4816,-8.5158,4.4742,-2.0E-4,1.2422,0.763
4465.0,-1.4816,-8.5158,4.4742,-2.0E-4,1.2422,0.763
4470.0,-1.6684,-9.3738,2.1189,-2.0E-4,1.2422,0.763
4475.0,-1.6684,-9.3738,2.1189,-2.0E-4,1.2422,0.763
4481.0,-1.6684,-9.3738,2.1189,-2.0E-4,1.2422,0.763
4485.0,-1.6684,-9.3738,2.1189,-0.01,1.5879,0.9109
4490.0,-1.6684,-9.3738,2.1189,-0.01,1.5879,0.9109
4495.0,-1.5391,-11.271,1.8345,-0.01,1.5879,0.9109
4500.0,-1.5391,-11.271,1.8345,-0.01,1.5879,0.9109
4505.0,-1.5391,-11.271,1.8345,-0.01,1.5879,0.9109
4510.0,-1.5391,-11.271,1.8345,-0.01,1.5879,0.9109
4515.0,-1.5391,-11.271,1.8345,-0.01,1.5879,0.9109
4520.0,-2.2575,-14.8032,1.7824,-0.2513,2.3112,2.2322
4525.0,-2.2575,-14.8032,1.7824,-0.2513,2.3112,2.2322
4530.0,-2.2575,-14.8032,1.7824,-0.2513,2.3112,2.2322
4536.0,-2.2575,-14.8032,1.7824,-0.2513,2.3112,2.2322
4541.0,-2.2575,-14.8032,1.7824,-0.2513,2.3112,2.2322
4545.0,-3.3925,-15.3657,-4.6153,-0.2513,2.3112,2.2322
4551.0,-3.3925,-15.3657,-4.6153,-0.0271,5.2251,0.9738
4556.0,-3.3925,-15.3657,-4.6153,-0.0271,5.2251,0.9738
4560.0,-3.3925,-15.3657,-4.6153,-0.0271,5.2251,0.9738
4566.0,-3.3925,-15.3657,-4.6153,-0.0271,5.2251,0.9738
4570.0,-3.3925,-15.3657,-4.6153,-0.0271,5.2251,0.9738
4575.0,-3.335,-13.6306,-2.0278,-0.0271,5.2251,0.9738
4580.0,-3.335,-13.6306,-2.0278,-0.3246,1.949,-1.196
4585.0,-3.335,-13.6306,-2.0278,-0.3246,1.949,-1.196
4590.0,-3.335,-13.6306,-2.0278,-0.3246,1.949,-1.196
4595.0,-3.335,-13.6306,-2.0278,-0.3246,1.949,-1.196
4601.0,-3.3255,-13.0681,0.4081,-0.3246,1.949,-1.196
4606.0,-3.3255,-13.0681,0.4081,-0.3246,1.949,-1.196
4610.0,-3.3255,-13.0681,0.4081,0.0572,-0.8732,-1.2021
4615.0,-3.3255,-13.0681,0.4081,0.0572,-0.8732,-1.2021
4620.0,-3.3255,-13.0681,0.4081,0.0572,-0.8732,-1.2021
4625.0,-1.1033,-10.4416,0.2375,0.0572,-0.8732,-1.2021
4630.0,-1.1033,-10.4416,0.2375,0.0572,-0.8732,-1.2021
4635.0,-1.1033,-10.4416,0.2375,0.0572,-0.8732,-1.2021
4640.0,-1.1033,-10.4416,0.2375,0.2166,-2.4304,-0.7886
4646.0,-1.1033,-10.4416,0.2375,0.2166,-2.4304,-0.7886
4650.0,-1.1033,-10.4416,0.2375,0.2166,-2.4304,-0.7886
4656.0,1.4015,-8.368,0.773,0.2166,-2.4304,-0.7886
4660.0,1.4015,-8.368,0.773,0.2166,-2.4304,-0.7886
4665.0,1.4015,-8.368,0.773,0.2166,-2.4304,-0.7886
4671.0,1.4015,-8.368,0.773,-0.4749,-1.8732,-0.5314
4676.0,1.4015,-8.368,0.773,-0.4749,-1.8732,-0.5314
4680.0,2.9292,-8.2393,2.3985,-0.4749,-1.8732,-0.5314
4686.0,2.9292,-8.2393,2.3985,-0.4749,-1.8732,-0.5314
4691.0,2.9292,-8.2393,2.3985,-0.4749,-1.8732,-0.5314
4695.0,2.9292,-8.2393,2.3985,-0.4749,-1.8732,-0.5314
4701.0,2.9292,-8.2393,2.3985,-1.0497,2.0614,-1.0696
4705.0,2.9292,-8.2393,2.3985,-1.0497,2.0614,-1.0696
4710.0,-0.0927,-10.3319,0.8014,-1.0497,2.0614,-1.0696
4715.0,-0.0927,-10.3319,0.8014,-1.0497,2.0614,-1.0696
4720.0,-0.0927,-10.3319,0.8014,-1.0497,2.0614,-1.0696
4725.0,-0.0927,-10.3319,0.8014,-1.0497,2.0614,-1.0696
4730.0,-0.0927,-10.3319,0.8014,-1.0497,2.0614,-1.0696
4735.0,-2.9567,-11.0946,-3.4495,0.0798,2.927,-2.6688
4740.0,-2.9567,-11.0946,-3.4495,0.0798,2.927,-2.6688
4745.0,-2.9567,-11.0946,-3.4495,0.0798,2.927,-2.6688
4750.0,-2.9567,-11.0946,-3.4495,0.0798,2.927,-2.6688
4755.0,-2.9567,-11.0946,-3.4495,0.0798,2.927,-2.6688
4760.0,-2.9567,-11.0946,-3.4495,0.0798,2.927,-2.6688
4766.0,-4.9969,-9.4596,-4.8191,0.1684,3.5165,-4.1056
4770.0,-4.9969,-9.4596,-4.8191,0.1684,3.5165,-4.1056
4790.0,-5.2843,-8.511,-9.2596,0.1684,3.5165,-4.1056
4790.0,-5.2843,-8.511,-9.2596,0.1684,3.5165,-4.1056
4790.0,-5.2843,-8.511,-9.2596,0.1684,3.5165,-4.1056
4790.0,-5.2843,-8.511,-9.2596,0.1684,3.5165,-4.1056
4795.0,-5.2843,-8.511,-9.2596,-0.156,3.1078,-3.1997
4800.0,-5.2843,-8.511,-9.2596,-0.156,3.1078,-3.1997
4805.0,-5.2843,-8.511,-9.2596,-0.156,3.1078,-3.1997
4810.0,-5.2843,-8.511,-9.2596,-0.156,3.1078,-3.1997
4815.0,-3.0573,-8.4491,-9.3449,-0.156,3.1078,-3.1997
4821.0,-3.0573,-8.4491,-9.3449,-0.156,3.1078,-3.1997
4830.0,-3.0573,-8.4491,-9.3449,-0.2562,-2.5739,-2.6474
4831.0,-3.0573,-8.4491,-9.3449,-0.2562,-2.5739,-2.6474
4836.0,-3.0573,-8.4491,-9.3449,-0.2562,-2.5739,-2.6474
4841.0,-3.0573,-8.4491,-9.3449,-0.2562,-2.5739,-2.6474
4845.0,2.7042,-6.4041,0.773,-0.2562,-2.5739,-2.6474
4850.0,2.7042,-6.4041,0.773,-0.2562,-2.5739,-2.6474
4855.0,2.7042,-6.4041,0.773,-0.2562,-2.5739,-2.6474
4860.0,2.7042,-6.4041,0.773,-1.478,-5.2226,-1.3145
4865.0,2.7042,-6.4041,0.773,-1.478,-5.2226,-1.3145
4870.0,2.7042,-6.4041,0.773,-1.478,-5.2226,-1.3145
4876.0,-1.2805,-11.414,5.8959,-1.478,-5.2226,-1.3145
4880.0,-1.2805,-11.414,5.8959,-1.478,-5.2226,-1.3145
4885.0,-1.2805,-11.414,5.8959,-1.478,-5.2226,-1.3145
4890.0,-1.2805,-11.414,5.8959,0.2258,1.2141,-1.6682
4895.0,-1.2805,-11.414,5.8959,0.2258,1.2141,-1.6682
4900.0,-0.9069,-12.5533,2.2468,0.2258,1.2141,-1.6682
4905.0,-0.9069,-12.5533,2.2468,0.2258,1.2141,-1.6682
4910.0,-0.9069,-12.5533,2.2468,0.2258,1.2141,-1.6682
4915.0,-0.9069,-12.5533,2.2468,0.2258,1.2141,-1.6682
4920.0,-0.9069,-12.5533,2.2468,0.2258,1.2141,-1.6682
4927.0,-0.9069,-12.5533,2.2468,1.2832,2.8121,-2.9168
4930.0,0.7789,-12.1719,-3.2268,1.2832,2.8121,-2.9168
4936.0,0.7789,-12.1719,-3.2268,1.2832,2.8121,-2.9168
4941.0,0.7789,-12.1719,-3.2268,1.2832,2.8121,-2.9168
4945.0,0.7789,-12.1719,-3.2268,1.2832,2.8121,-2.9168
4950.0,0.7789,-12.1719,-3.2268,1.2832,2.8121,-2.9168
4955.0,0.6065,-9.512,-1.6913,0.5593,2.5299,-4.5833
4961.0,0.6065,-9.512,-1.6913,0.5593,2.5299,-4.5833
4965.0,0.6065,-9.512,-1.6913,0.5593,2.5299,-4.5833
4970.0,0.6065,-9.512,-1.6913,0.5593,2.5299,-4.5833
4975.0,0.6065,-9.512,-1.6913,0.5593,2.5299,-4.5833
4981.0,0.9417,-8.5825,-9.4492,0.5593,2.5299,-4.5833
4985.0,0.9417,-8.5825,-9.4492,0.5111,3.2807,-3.5741
4990.0,0.9417,-8.5825,-9.4492,0.5111,3.2807,-3.5741
4995.0,0.9417,-8.5825,-9.4492,0.5111,3.2807,-3.5741
5000.0,0.9417,-8.5825,-9.4492,0.5111,3.2807,-3.5741
5006.0,0.9417,-8.5825,-9.4492,0.5111,3.2807,-3.5741
5010.0,1.0758,-7.939,-8.4824,0.5111,3.2807,-3.5741
5015.0,1.0758,-7.939,-8.4824,0.5111,3.2807,-3.5741
5020.0,1.0758,-7.939,-8.4824,0.4536,-0.9911,-2.4355
5025.0,1.0758,-7.939,-8.4824,0.4536,-0.9911,-2.4355
5030.0,1.0758,-7.939,-8.4824,0.4536,-0.9911,-2.4355
5035.0,0.2569,-6.2325,-0.1227,0.4536,-0.9911,-2.4355
5041.0,0.2569,-6.2325,-0.1227,0.4536,-0.9911,-2.4355
5045.0,0.2569,-6.2325,-0.1227,0.4536,-0.9911,-2.4355
5050.0,0.2569,-6.2325,-0.1227,0.7108,0.095,-1.6236
5055.0,0.2569,-6.2325,-0.1227,0.7108,0.095,-1.6236
5060.0,0.2569,-6.2325,-0.1227,0.7108,0.095,-1.6236
5065.0,-0.5286,-4.4735,-2.6107,0.7108,0.095,-1.6236
5070.0,-0.5286,-4.4735,-2.6107,0.7108,0.095,-1.6236
5075.0,-0.5286,-4.4735,-2.6107,0.7108,0.095,-1.6236
5080.0,-0.5286,-4.4735,-2.6107,0.5331,1.1994,-1.6279
5085.0,-0.5286,-4.4735,-2.6107,0.5331,1.1994,-1.6279
5090.0,-1.1655,-3.4344,-5.3594,0.5331,1.1994,-1.6279
5096.0,-1.1655,-3.4344,-5.3594,0.5331,1.1994,-1.6279
5100.0,-1.1655,-3.4344,-5.3594,0.5331,1.1994,-1.6279
5106.0,-1.1655,-3.4344,-5.3594,0.5331,1.1994,-1.6279
5110.0,-1.1655,-3.4344,-5.3594,0.3058,0.5372,-0.6078
5115.0,0.0557,-3.1531,-5.492,0.3058,0.5372,-0.6078
5120.0,0.0557,-3.1531,-5.492,0.3058,0.5372,-0.6078
5125.0,0.0557,-3.1531,-5.492,0.3058,0.5372,-0.6078
5130.0,0.0557,-3.1531,-5.492,0.3058,0.5372,-0.6078
5135.0,0.0557,-3.1531,-5.492,0.3058,0.5372,-0.6078
5140.0,0.0557,-3.1531,-5.492,0.3058,0.5372,-0.6078
5145.0,0.549,-3.5154,-5.421,0.1396,0.0211,0.5181
5150.0,0.549,-3.5154,-5.421,0.1396,0.0211,0.5181
5155.0,0.549,-3.5154,-5.421,0.1396,0.0211,0.5181
5160.0,0.549,-3.5154,-5.421,0.1396,0.0211,0.5181
5165.0,0.549,-3.5154,-5.421,0.1396,0.0211,0.5181
5171.0,0.1228,-2.2093,-5.0134,0.1396,0.0211,0.5181
5175.0,0.1228,-2.2093,-5.0134,0.4701,0.0052,1.0513
5180.0,0.1228,-2.2093,-5.0134,0.4701,0.0052,1.0513
5185.0,0.1228,-2.2093,-5.0134,0.4701,0.0052,1.0513
5190.0,0.1228,-2.2093,-5.0134,0.4701,0.0052,1.0513
5196.0,-0.088,-0.2597,-4.9328,0.4701,0.0052,1.0513
5200.0,-0.088,-0.2597,-4.9328,0.4701,0.0052,1.0513
5206.0,-0.088,-0.2597,-4.9328,0.5068,0.6527,1.1809
5210.0,-0.088,-0.2597,-4.9328,0.5068,0.6527,1.1809
5215.0,-0.088,-0.2597,-4.9328,0.5068,0.6527,1.1809
5220.0,-0.5334,0.8033,-6.3119,0.5068,0.6527,1.1809
5225.0,-0.5334,0.8033,-6.3119,0.5068,0.6527,1.1809
5231.0,-0.5334,0.8033,-6.3119,0.5068,0.6527,1.1809
5235.0,-0.5334,0.8033,-6.3119,0.4683,0.7474,1.471
5240.0,-0.5334,0.8033,-6.3119,0.4683,0.7474,1.471
5245.0,-0.5334,0.8033,-6.3119,0.4683,0.7474,1.471
5250.0,-3.3446,-1.6516,-18.6856,0.4683,0.7474,1.471
5255.0,-3.3446,-1.6516,-18.6856,0.4683,0.7474,1.471
5260.0,-3.3446,-1.6516,-18.6856,0.4683,0.7474,1.471
5266.0,-3.3446,-1.6516,-18.6856,-0.0448,0.1622,1.2004
5270.0,-3.3446,-1.6516,-18.6856,-0.0448,0.1622,1.2004
5275.0,0.6592,-8.6492,-13.8375,-0.0448,0.1622,1.2004
5281.0,0.6592,-8.6492,-13.8375,-0.0448,0.1622,1.2004
5285.0,0.6592,-8.6492,-13.8375,-0.0448,0.1622,1.2004
5290.0,0.6592,-8.6492,-13.8375,-0.0448,0.1622,1.2004
5295.0,0.6592,-8.6492,-13.8375,-2.1279,-3.2227,2.0135
5300.0,3.4992,-11.7811,1.2185,-2.1279,-3.2227,2.0135
5305.0,3.4992,-11.7811,1.2185,-2.1279,-3.2227,2.0135
5310.0,3.4992,-11.7811,1.2185,-2.1279,-3.2227,2.0135
5316.0,3.4992,-11.7811,1.2185,-2.1279,-3.2227,2.0135
5320.0,3.4992,-11.7811,1.2185,-2.1279,-3.2227,2.0135
5325.0,3.4992,-11.7811,1.2185,-2.1279,-3.2227,2.0135
5330.0,6.1332,-19.3698,-11.2832,-2.5549,-0.0309,2.5291
5335.0,6.1332,-19.3698,-11.2832,-2.5549,-0.0309,2.5291
5341.0,6.1332,-19.3698,-11.2832,-2.5549,-0.0309,2.5291
5345.0,6.1332,-19.3698,-11.2832,-2.5549,-0.0309,2.5291
5350.0,6.1332,-19.3698,-11.2832,-2.5549,-0.0309,2.5291
5356.0,2.6563,-10.8801,-2.6771,-2.5549,-0.0309,2.5291
5360.0,2.6563,-10.8801,-2.6771,-1.0851,0.4969,0.4319
5365.0,2.6563,-10.8801,-2.6771,-1.0851,0.4969,0.4319
5371.0,2.6563,-10.8801,-2.6771,-1.0851,0.4969,0.4319
5376.0,2.6563,-10.8801,-2.6771,-1.0851,0.4969,0.4319
5380.0,0.2138,-4.1732,-1.0089,-1.0851,0.4969,0.4319
5385.0,0.2138,-4.1732,-1.0089,-1.0851,0.4969,0.4319
5390.0,0.2138,-4.1732,-1.0089,-0.484,-0.2483,2.3843
5395.0,0.2138,-4.1732,-1.0089,-0.484,-0.2483,2.3843
5400.0,0.2138,-4.1732,-1.0089,-0.484,-0.2483,2.3843
5405.0,0.2138,-4.1732,-1.0089,-0.484,-0.2483,2.3843
5410.0,0.2856,-7.2859,-9.3591,-0.484,-0.2483,2.3843
5416.0,0.2856,-7.2859,-9.3591,-0.484,-0.2483,2.3843
5420.0,0.2856,-7.2859,-9.3591,-0.7223,-1.5825,2.5401
5425.0,0.2856,-7.2859,-9.3591,-0.7223,-1.5825,2.5401
5430.0,0.2856,-7.2859,-9.3591,-0.7223,-1.5825,2.5401
5435.0,0.2856,-7.2859,-9.3591,-0.7223,-1.5825,2.5401
5440.0,0.2856,-7.2859,-9.3591,-0.7223,-1.5825,2.5401
5446.0,0.2856,-7.2859,-9.3591,-0.7223,-1.5825,2.5401
5450.0,0.2856,-7.2859,-9.3591,-0.7223,-1.5825,2.5401
5455.0,3.6285,-13.0156,-3.9945,-1.156,-1.8769,2.7032
5460.0,3.6285,-13.0156,-3.9945,-1.156,-1.8769,2.7032
5465.0,3.6285,-13.0156,-3.9945,-1.156,-1.8769,2.7032
5471.0,3.6285,-13.0156,-3.9945,-1.156,-1.8769,2.7032
5476.0,3.6285,-13.0156,-3.9945,-1.156,-1.8769,2.7032
5480.0,3.6285,-13.0156,-3.9945,-1.156,-1.8769,2.7032
5486.0,-0.4041,-11.0279,-0.6819,-0.1114,-2.1536,2.427
5490.0,-0.4041,-11.0279,-0.6819,-0.1114,-2.1536,2.427
5495.0,-0.4041,-11.0279,-0.6819,-0.1114,-2.1536,2.427
5500.0,-0.4041,-11.0279,-0.6819,-0.1114,-2.1536,2.427
5505.0,-0.4041,-11.0279,-0.6819,-0.1114,-2.1536,2.427
5510.0,-0.0305,-8.8685,0.1569,-0.1114,-2.1536,2.427
5515.0,-0.0305,-8.8685,0.1569,-0.1114,-2.1536,2.427
5521.0,-0.0305,-8.8685,0.1569,0.6729,-1.3283,2.2426
5525.0,-0.0305,-8.8685,0.1569,0.6729,-1.3283,2.2426
5530.0,-0.0305,-8.8685,0.1569,0.6729,-1.3283,2.2426
5536.0,-0.6627,-8.001,0.5408,0.6729,-1.3283,2.2426
5540.0,-0.6627,-8.001,0.5408,0.6729,-1.3283,2.2426
5545.0,-0.6627,-8.001,0.5408,0.6729,-1.3283,2.2426
5550.0,-0.6627,-8.001,0.5408,0.8708,-0.8433,2.1485
5555.0,-0.6627,-8.001,0.5408,0.8708,-0.8433,2.1485
5560.0,-0.6627,-8.001,0.5408,0.8708,-0.8433,2.1485
5565.0,-1.8935,-7.5052,-0.1985,0.8708,-0.8433,2.1485
5570.0,-1.8935,-7.5052,-0.1985,0.8708,-0.8433,2.1485
5575.0,-1.8935,-7.5052,-0.1985,0.8708,-0.8433,2.1485
5580.0,-1.8935,-7.5052,-0.1985,1.0724,-0.5061,1.7233
5585.0,-1.8935,-7.5052,-0.1985,1.0724,-0.5061,1.7233
5590.0,-2.9759,-7.1096,-0.9094,1.0724,-0.5061,1.7233
5596.0,-2.9759,-7.1096,-0.9094,1.0724,-0.5061,1.7233
5600.0,-2.9759,-7.1096,-0.9094,1.0724,-0.5061,1.7233
5605.0,-2.9759,-7.1096,-0.9094,1.0724,-0.5061,1.7233
5610.0,-2.9759,-7.1096,-0.9094,0.7939,0.5849,1.5523
5615.0,-2.3389,-6.2277,-1.9994,0.7939,0.5849,1.5523
5620.0,-2.3389,-6.2277,-1.9994,0.7939,0.5849,1.5523
5625.0,-2.3389,-6.2277,-1.9994,0.7939,0.5849,1.5523
5631.0,-2.3389,-6.2277,-1.9994,0.7939,0.5849,1.5523
5635.0,-2.3389,-6.2277,-1.9994,0.7939,0.5849,1.5523
5640.0,-2.3389,-6.2277,-1.9994,0.7939,0.5849,1.5523
5645.0,-1.1368,-8.1011,-1.5065,-0.4889,1.3418,1.3702
5650.0,-1.1368,-8.1011,-1.5065,-0.4889,1.3418,1.3702
5655.0,-1.1368,-8.1011,-1.5065,-0.4889,1.3418,1.3702
5661.0,-1.1368,-8.1011,-1.5065,-0.4889,1.3418,1.3702
5666.0,-1.1368,-8.1011,-1.5065,-0.4889,1.3418,1.3702
5670.0,-0.7057,-9.2832,-1.4023,-0.4889,1.3418,1.3702
5675.0,-0.7057,-9.2832,-1.4023,-0.28,1.2874,1.1265
5680.0,-0.7057,-9.2832,-1.4023,-0.28,1.2874,1.1265
5685.0,-0.7057,-9.2832,-1.4023,-0.28,1.2874,1.1265
5690.0,-0.7057,-9.2832,-1.4023,-0.28,1.2874,1.1265
5695.0,-0.7057,-9.2832,-1.4023,-0.28,1.2874,1.1265
5700.0,-0.6722,-7.8532,-1.2459,-0.28,1.2874,1.1265
5705.0,-0.6722,-7.8532,-1.2459,0.0187,0.2782,1.1265
5710.0,-0.6722,-7.8532,-1.2459,0.0187,0.2782,0.9451
5715.0,-0.6722,-7.8532,-1.2459,0.0187,0.2782,0.9451
5720.0,-0.6722,-7.8532,-1.2459,0.0187,0.2782,0.9451
5726.0,-1.4577,-7.2764,0.2659,0.0187,0.2782,0.9451
5730.0,-1.4577,-7.2764,0.2659,0.0187,0.2782,0.9451
5735.0,-1.4577,-7.2764,0.2659,0.0187,0.2782,0.9451
5740.0,-1.4577,-7.2764,0.2659,0.0059,-0.0736,0.7801
5745.0,-1.4577,-7.2764,0.2659,0.0059,-0.0736,0.7801
5750.0,-2.2383,-7.9485,1.5028,0.0059,-0.0736,0.7801
5755.0,-2.2383,-7.9485,1.5028,0.0059,-0.0736,0.7801
5760.0,-2.2383,-7.9485,1.5028,0.0059,-0.0736,0.7801
5765.0,-2.2383,-7.9485,1.5028,0.0059,-0.0736,0.7801
5770.0,-2.2383,-7.9485,1.5028,0.1549,0.4297,1.0422
5775.0,-2.6885,-9.7647,1.498,0.1549,0.4297,1.0422
5780.0,-2.6885,-9.7647,1.498,0.1549,0.4297,1.0422
5785.0,-2.6885,-9.7647,1.498,0.1549,0.4297,1.0422
5790.0,-2.6885,-9.7647,1.498,0.1549,0.4297,1.0422
5796.0,-2.6885,-9.7647,1.498,0.1549,0.4297,1.0422
5800.0,-2.6885,-9.7647,1.498,0.3412,0.9148,1.2181
5805.0,-2.5113,-11.2138,0.8914,0.3412,0.9148,1.2181
5811.0,-2.5113,-11.2138,0.8914,0.3412,0.9148,1.2181
5816.0,-2.5113,-11.2138,0.8914,0.3412,0.9148,1.2181
5820.0,-2.5113,-11.2138,0.8914,0.3412,0.9148,1.2181
5825.0,-2.5113,-11.2138,0.8914,0.3412,0.9148,1.2181
5830.0,-2.0467,-12.9346,-0.2175,0.6259,0.4395,1.3867
5835.0,-2.0467,-12.9346,-0.2175,0.6259,0.4395,1.3867
5840.0,-2.0467,-12.9346,-0.2175,0.6259,0.4395,1.3867
5846.0,-2.0467,-12.9346,-0.2175,0.6259,0.4395,1.3867
5850.0,-2.0467,-12.9346,-0.2175,0.6259,0.4395,1.3867
5855.0,-2.0467,-12.9346,-0.2175,0.6259,0.4395,1.3867
5860.0,-0.3945,-14.4933,1.209,0.5068,-0.3693,2.0764
5865.0,-0.3945,-14.4933,1.209,0.5068,-0.3693,2.0764
5870.0,-0.3945,-14.4933,1.209,0.5068,-0.3693,2.0764
5875.0,-0.3945,-14.4933,1.209,0.5068,-0.3693,2.0764
5880.0,-0.3945,-14.4933,1.209,0.5068,-0.3693,2.0764
5886.0,0.7549,-8.2059,-13.8897,0.5068,-0.3693,2.0764
5891.0,0.7549,-8.2059,-13.8897,0.114,3.8115,-0.2632
5896.0,0.7549,-8.2059,-13.8897,0.114,3.8115,-0.2632
5901.0,0.7549,-8.2059,-13.8897,0.114,3.8115,-0.2632
5905.0,0.7549,-8.2059,-13.8897,0.114,3.8115,-0.2632
5910.0,0.7549,-8.2059,-13.8897,0.114,3.8115,-0.2632
5915.0,-0.5334,-10.2223,-4.966,0.114,3.8115,-0.2632
5920.0,-0.5334,-10.2223,-4.966,-0.7492,-3.4462,-0.8362
5926.0,-0.5334,-10.2223,-4.966,-0.7492,-3.4462,-0.8362
5930.0,-0.5334,-10.2223,-4.966,-0.7492,-3.4462,-0.8362
5935.0,-0.5334,-10.2223,-4.966,-0.7492,-3.4462,-0.8362
5941.0,-2.0132,-12.3149,2.1473,-0.7492,-3.4462,-0.8362
5945.0,-2.0132,-12.3149,2.1473,-0.7492,-3.4462,-0.8362
5951.0,-2.0132,-12.3149,2.1473,-0.1151,-4.3069,-0.4001
5955.0,-2.0132,-12.3149,2.1473,-0.1151,-4.3069,-0.4001
5960.0,-2.0132,-12.3149,2.1473,-0.1151,-4.3069,-0.4001
5965.0,-2.0132,-12.3149,2.1473,-0.1151,-4.3069,-0.4001
5971.0,-2.7795,-11.2329,5.0571,-0.1151,-4.3069,-0.4001
5975.0,-2.7795,-11.2329,5.0571,-0.1151,-4.3069,-0.4001
5980.0,-2.7795,-11.2329,5.0571,-0.1151,-4.3069,-0.4001
5985.0,-2.7795,-11.2329,5.0571,-0.1151,-4.3069,-0.4001
5990.0,-2.7795,-11.2329,5.0571,0.2301,-1.58,0.4093
5995.0,-2.6933,-11.8669,3.9197,0.2301,-1.58,0.4093
6000.0,-2.6933,-11.8669,3.9197,0.2301,-1.58,0.4093
6005.0,-2.6933,-11.8669,3.9197,0.2301,-1.58,0.4093
6010.0,-2.6933,-11.8669,3.9197,0.2301,-1.58,0.4093
6015.0,-2.6933,-11.8669,3.9197,0.2301,-1.58,0.4093
6021.0,-3.2201,-14.3313,2.9956,0.2075,2.1646,0.2358
6025.0,-3.2201,-14.3313,2.9956,0.2075,2.1646,0.2358
6030.0,-3.2201,-14.3313,2.9956,0.2075,2.1646,0.2358
6036.0,-3.2201,-14.3313,2.9956,0.2075,2.1646,0.2358
6040.0,-3.2201,-14.3313,2.9956,0.2075,2.1646,0.2358
6045.0,-3.2201,-14.3313,2.9956,0.2075,2.1646,0.2358
6050.0,-2.813,-15.9854,1.8345,0.2844,2.0589,-0.1826
6055.0,-2.813,-15.9854,1.8345,0.2844,2.0589,-0.1826
6060.0,-2.813,-15.9854,1.8345,0.2844,2.0589,-0.1826
6065.0,-2.813,-15.9854,1.8345,0.2844,2.0589,-0.1826
6071.0,-2.813,-15.9854,1.8345,0.2844,2.0589,-0.1826
6075.0,-1.6444,-15.6326,1.3701,0.2844,2.0589,-0.1826
6081.0,-1.6444,-15.6326,1.3701,0.2844,2.0589,-0.1826
6088.0,-1.6444,-15.6326,1.3701,0.2014,1.368,0.5462
6091.0,-1.6444,-15.6326,1.3701,0.2014,1.368,0.5462
6095.0,-1.6444,-15.6326,1.3701,0.2014,1.368,0.5462
6100.0,1.1812,-11.0041,1.3796,0.2014,1.368,0.5462
6105.0,1.1812,-11.0041,1.3796,0.2014,1.368,0.5462
6110.0,1.1812,-11.0041,1.3796,0.2014,1.368,0.5462
6115.0,1.1812,-11.0041,1.3796,0.2014,1.368,0.5462
6120.0,1.1812,-11.0041,1.3796,-0.3637,4.5061,0.3641
6125.0,1.1812,-11.0041,1.3796,-0.3637,4.5061,0.3641
6130.0,0.9082,-8.716,-5.7053,-0.3637,4.5061,0.3641
6135.0,0.9082,-8.716,-5.7053,-0.3637,4.5061,0.3641
6140.0,0.9082,-8.716,-5.7053,-0.3637,4.5061,0.3641
6145.0,0.9082,-8.716,-5.7053,-0.3637,4.5061,0.3641
6150.0,0.9082,-8.716,-5.7053,-0.3637,4.5061,0.3641
6155.0,0.9082,-8.716,-6.9517,-0.9373,2.7944,-2.8533
6160.0,0.798,-10.3748,-6.9517,-0.9373,2.7944,-2.8533
6165.0,0.798,-10.3748,-6.9517,-0.9373,2.7944,-2.8533
6170.0,0.798,-10.3748,-6.9517,-0.9373,2.7944,-2.8533
6175.0,0.798,-10.3748,-6.9517,-0.9373,2.7944,-2.8533
6181.0,0.798,-10.3748,-6.9517,-0.9373,2.7944,-2.8533
6186.0,-0.3178,-11.3854,-5.2504,-0.9092,0.4212,-3.7837
6190.0,-0.3178,-11.3854,-5.2504,-0.9092,0.4212,-3.7837
6195.0,-0.3178,-11.3854,-5.2504,-0.9092,0.4212,-3.7837
6200.0,-0.3178,-11.3854,-5.2504,-0.9092,0.4212,-3.7837
6205.0,-0.3178,-11.3854,-5.2504,-0.9092,0.4212,-3.7837
6210.0,-2.813,-10.0269,-5.1366,-0.9092,0.4212,-3.7837
6215.0,-2.813,-10.0269,-5.1366,-0.5366,1.6423,-3.9627
6220.0,-2.813,-10.0269,-5.1366,-0.5366,1.6423,-3.9627
6225.0,-2.813,-10.0269,-5.1366,-0.5366,1.6423,-3.9627
6230.0,-2.813,-10.0269,-5.1366,-0.5366,1.6423,-3.9627
6235.0,-2.813,-10.0269,-5.1366,-0.5366,1.6423,-3.9627
6240.0,-2.8657,-11.4664,-4.7054,-0.5366,1.6423,-3.9627
6246.0,-2.8657,-11.4664,-4.7054,-0.4969,-2.0693,-3.1136
6250.0,-2.8657,-11.4664,-4.7054,-0.4969,-2.0693,-3.1136
6256.0,-2.8657,-11.4664,-4.7054,-0.4969,-2.0693,-3.1136
6260.0,-2.8657,-11.4664,-4.7054,-0.4969,-2.0693,-3.1136
6265.0,-2.8657,-11.4664,-4.7054,-0.4969,-2.0693,-3.1136
6271.0,0.4293,-11.4474,3.1141,-0.4969,-2.0693,-3.1136
6275.0,0.4293,-11.4474,3.1141,-0.5176,-5.7639,-1.4459
6280.0,0.4293,-11.4474,3.1141,-0.5176,-5.7639,-1.4459
6286.0,0.4293,-11.4474,3.1141,-0.5176,-5.7639,-1.4459
6290.0,0.4293,-11.4474,3.1141,-0.5176,-5.7639,-1.4459
6295.0,0.8603,-10.3748,6.9101,-0.5176,-5.7639,-1.4459
6300.0,0.8603,-10.3748,6.9101,-0.5176,-5.7639,-1.4459
6305.0,0.8603,-10.3748,6.9101,-0.5176,-5.7639,-1.4459
6311.0,0.8603,-10.3748,6.9101,-0.2482,-3.5873,-0.05
6316.0,0.8603,-10.3748,6.9101,-0.2482,-3.5873,-0.05
6320.0,0.1036,-7.3622,6.2229,-0.2482,-3.5873,-0.05
6325.0,0.1036,-7.3622,6.2229,-0.2482,-3.5873,-0.05
6330.0,0.1036,-7.3622,6.2229,-0.2482,-3.5873,-0.05
6335.0,0.1036,-7.3622,6.2229,-0.2482,-3.5873,-0.05
6340.0,0.1036,-7.3622,6.2229,0.6949,3.3644,-2.0225
6345.0,0.1036,-7.3622,6.2229,0.6949,3.3644,-2.0225
6350.0,-1.3188,-7.4147,-1.9851,0.6949,3.3644,-2.0225
6355.0,-1.3188,-7.4147,-1.9851,0.6949,3.3644,-2.0225
6360.0,-1.3188,-7.4147,-1.9851,0.6949,3.3644,-2.0225
6365.0,-1.3188,-7.4147,-1.9851,0.6949,3.3644,-2.0225
6370.0,-1.3188,-7.4147,-1.9851,0.6528,4.2746,-4.6267
6375.0,0.3622,-7.7292,-3.7765,0.6528,4.2746,-4.6267
6381.0,0.3622,-7.7292,-3.7765,0.6528,4.2746,-4.6267
6386.0,0.3622,-7.7292,-3.7765,0.6528,4.2746,-4.6267
6390.0,0.3622,-7.7292,-3.7765,0.6528,4.2746,-4.6267
6395.0,0.3622,-7.7292,-3.7765,0.6528,4.2746,-4.6267
6400.0,0.3048,-8.4014,-2.0562,0.6528,4.2746,-4.6267
6405.0,0.3048,-8.4014,-2.0562,-0.0882,3.9019,-4.3273
6411.0,0.3048,-8.4014,-2.0562,-0.0882,3.9019,-4.3273
6415.0,0.3048,-8.4014,-2.0562,-0.0882,3.9019,-4.3273
6421.0,0.3048,-8.4014,-2.0562,-0.0882,3.9019,-4.3273
6425.0,-0.0209,-8.9305,-7.6436,-0.0882,3.9019,-4.3273
6430.0,-0.0209,-8.9305,-7.6436,-0.0882,3.9019,-4.3273
6435.0,-0.0209,-8.9305,-7.6436,0.0694,1.7718,-2.6713
6440.0,-0.0209,-8.9305,-7.6436,0.0694,1.7718,-2.6713
6445.0,-0.0209,-8.9305,-7.6436,0.0694,1.7718,-2.6713
6450.0,1.1381,-7.0762,-4.985,0.0694,1.7718,-2.6713
6455.0,1.1381,-7.0762,-4.985,0.0694,1.7718,-2.6713
6460.0,1.1381,-7.0762,-4.985,0.0694,1.7718,-2.6713
6465.0,1.1381,-7.0762,-4.985,0.0694,1.7718,-2.6713
6470.0,1.1381,-7.0762,-4.985,0.4048,-0.8573,-2.163
6475.0,1.1381,-7.0762,-4.985,0.4048,-0.8573,-2.163
6480.0,1.4111,-5.8416,-2.0325,0.4048,-0.8573,-2.163
6485.0,1.4111,-5.8416,-2.0325,0.4048,-0.8573,-2.163
6490.0,1.4111,-5.8416,-2.0325,0.4048,-0.8573,-2.163
6495.0,1.4111,-5.8416,-2.0325,0.4048,-0.8573,-2.163
6500.0,1.4111,-5.8416,-2.0325,0.1739,1.3399,-2.3329
6506.0,-0.2364,-6.2039,-4.5679,0.1739,1.3399,-2.3329
6510.0,-0.2364,-6.2039,-4.5679,0.1739,1.3399,-2.3329
6515.0,-0.2364,-6.2039,-4.5679,0.1739,1.3399,-2.3329
6520.0,-0.2364,-6.2039,-4.5679,0.1739,1.3399,-2.3329
6525.0,-0.2364,-6.2039,-4.5679,0.1739,1.3399,-2.3329
6530.0,-0.2364,-6.2039,-4.5679,0.1873,1.0266,-1.981
6535.0,-1.108,-6.5423,-5.8996,0.1873,1.0266,-1.981
6541.0,-1.108,-6.5423,-5.8996,0.1873,1.0266,-1.981
6545.0,-1.108,-6.5423,-5.8996,0.1873,1.0266,-1.981
6550.0,-1.108,-6.5423,-5.8996,0.1873,1.0266,-1.981
6557.0,-0.0927,-5.7749,-4.4589,0.4011,0.1078,-0.9486
6560.0,-0.0927,-5.7749,-4.4589,0.4011,0.1078,-0.9486
6565.0,-0.0927,-5.7749,-4.4589,0.4011,0.1078,-0.9486
6571.0,-0.0927,-5.7749,-4.4589,0.4011,0.1078,-0.9486
6575.0,-0.0927,-5.7749,-4.4589,0.4011,0.1078,-0.9486
6581.0,-0.0927,-5.7749,-4.4589,0.4011,0.1078,-0.9486
6585.0,0.8986,-4.2257,-4.7907,0.4011,0.1078,-0.9486
6590.0,0.8986,-4.2257,-4.7907,0.4023,0.2954,-0.4062
6595.0,0.8986,-4.2257,-4.7907,0.4023,0.2954,-0.4062
6600.0,0.8986,-4.2257,-4.7907,0.4023,0.2954,-0.4062
6605.0,0.8986,-4.2257,-4.7907,0.4023,0.2954,-0.4062
6611.0,0.9082,-2.6192,-5.2788,0.4023,0.2954,-0.4062
6615.0,0.9082,-2.6192,-5.2788,0.4023,0.2954,-0.4062
6620.0,0.9082,-2.6192,-5.2788,0.4378,-0.0705,0.1125
6626.0,0.9082,-2.6192,-5.2788,0.4378,-0.0705,0.1125
6630.0,0.9082,-2.6192,-5.2788,0.4378,-0.0705,0.1125
6635.0,0.9082,-2.6192,-5.2788,0.4378,-0.0705,0.1125
6640.0,0.8795,-0.9795,-6.2076,0.4378,-0.0705,0.1125
6645.0,0.8795,-0.9795,-6.2076,0.4378,-0.0705,0.1125
6650.0,0.8795,-0.9795,-6.2076,0.2783,-0.4016,0.7679
6655.0,0.8795,-0.9795,-6.2076,0.2783,-0.4016,0.7679
6661.0,0.8795,-0.9795,-6.2076,0.2783,-0.4016,0.7679
6665.0,-0.6818,-3.0721,-5.6864,0.2783,-0.4016,0.7679
6670.0,-0.6818,-3.0721,-5.6864,0.2783,-0.4016,0.7679
6676.0,-0.6818,-3.0721,-5.6864,0.2783,-0.4016,0.7679
6680.0,-0.6818,-3.0721,-5.6864,0.4549,0.1487,1.0642
6685.0,-0.6818,-3.0721,-5.6864,0.4549,0.1487,1.0642
6691.0,-0.6818,-3.0721,-5.6864,0.4549,0.1487,1.0642
6696.0,-1.5966,-3.6441,-5.1508,0.4549,0.1487,1.0642
6702.0,-1.5966,-3.6441,-5.1508,0.4549,0.1487,1.0642
6706.0,-1.5966,-3.6441,-5.1508,0.4549,0.1487,1.0642
6711.0,-1.5966,-3.6441,-5.1508,0.5648,0.8543,1.4026
6715.0,-1.5966,-3.6441,-5.1508,0.5648,0.8543,1.4026
6721.0,-2.6981,-3.8443,-7.3308,0.5648,0.8543,1.4026
6728.0,-2.6981,-3.8443,-7.3308,0.5648,0.8543,1.4026
6730.0,-2.6981,-3.8443,-7.3308,0.5648,0.8543,1.4026
6735.0,-2.6981,-3.8443,-7.3308,0.5648,0.8543,1.4026
6740.0,-2.6981,-3.8443,-7.3308,0.5648,0.8543,1.4026
6746.0,-2.6981,-3.8443,-7.3308,0.6369,1.1512,1.8919
6751.0,-4.063,-4.5689,-14.4536,0.6369,1.1512,1.8919
6755.0,-4.063,-4.5689,-14.4536,0.6369,1.1512,1.8919
6760.0,-4.063,-4.5689,-14.4536,0.6369,1.1512,1.8919
6766.0,-4.063,-4.5689,-14.4536,0.6369,1.1512,1.8919
6770.0,-4.063,-4.5689,-14.4536,0.6369,1.1512,1.8919
6775.0,-4.063,-4.5689,-14.4536,0.6259,-1.2074,1.5468
6780.0,-0.2652,-10.7466,-19.1311,0.6259,-1.2074,1.5468
6785.0,-0.2652,-10.7466,-19.1311,0.6259,-1.2074,1.5468
6790.0,-0.2652,-10.7466,-19.1311,0.6259,-1.2074,1.5468
6795.0,-0.2652,-10.7466,-19.1311,0.6259,-1.2074,1.5468
6800.0,-0.2652,-10.7466,-19.1311,0.6259,-1.2074,1.5468
6806.0,7.0384,-14.5696,-5.4305,0.6259,-1.2074,1.5468
6810.0,7.0384,-14.5696,-5.4305,-1.4926,-2.6588,1.3721
6816.0,7.0384,-14.5696,-5.4305,-1.4926,-2.6588,1.3721
6820.0,7.0384,-14.5696,-5.4305,-1.4926,-2.6588,1.3721
6826.0,7.0384,-14.5696,-5.4305,-1.4926,-2.6588,1.3721
6830.0,4.5768,-14.3313,-1.7577,-1.4926,-2.6588,1.3721
6835.0,4.5768,-14.3313,-1.7577,-1.4926,-2.6588,1.3721
6841.0,4.5768,-14.3313,-1.7577,-1.9281,0.4988,1.5877
6845.0,4.5768,-14.3313,-1.7577,-1.9281,0.4988,1.5877
6850.0,4.5768,-14.3313,-1.7577,-1.9281,0.4988,1.5877
6855.0,3.7003,-5.6223,-8.0701,-1.9281,0.4988,1.5877
6860.0,3.7003,-5.6223,-8.0701,-1.9281,0.4988,1.5877
6865.0,3.7003,-5.6223,-8.0701,-1.9281,0.4988,1.5877
6870.0,3.7003,-5.6223,-8.0701,-0.3973,2.555,0.4423
6875.0,3.7003,-5.6223,-8.0701,-0.3973,2.555,0.4423
6880.0,3.7003,-5.6223,-8.0701,-0.3973,2.555,0.4423
6885.0,0.3718,-1.6373,-5.62,-0.3973,2.555,0.4423
6890.0,0.3718,-1.6373,-5.62,-0.3973,2.555,0.4423
6895.0,0.3718,-1.6373,-5.62,-0.3973,2.555,0.4423
6900.0,0.3718,-1.6373,-5.62,-0.3973,2.555,0.4423
6905.0,0.3718,-1.6373,-5.62,-0.9422,-2.5311,2.7862
6910.0,1.2051,-4.4783,0.1711,-0.9422,-2.5311,2.7862
6915.0,1.2051,-4.4783,0.1711,-0.9422,-2.5311,2.7862
6920.0,1.2051,-4.4783,0.1711,-0.9422,-2.5311,2.7862
6925.0,1.2051,-4.4783,0.1711,-0.9422,-2.5311,2.7862
6930.0,1.2051,-4.4783,0.1711,-0.9422,-2.5311,2.7862
6935.0,1.2051,-4.4783,0.1711,-1.3527,-4.6148,3.6384
6940.0,0.7933,-13.13,-3.7291,-1.3527,-4.6148,3.6384
6945.0,0.7933,-13.13,-3.7291,-1.3527,-4.6148,3.6384
6950.0,0.7933,-13.13,-3.7291,-1.3527,-4.6148,3.6384
6955.0,0.7933,-13.13,-3.7291,-1.3527,-4.6148,3.6384
6961.0,0.7933,-13.13,-3.7291,-1.3527,-4.6148,3.6384
6966.0,1.5739,-18.0923,-3.8381,-1.2556,-2.8219,2.9096
6970.0,1.5739,-18.0923,-3.8381,-1.2556,-2.8219,2.9096
6975.0,1.5739,-18.0923,-3.8381,-1.2556,-2.8219,2.9096
6981.0,1.5739,-18.0923,-3.8381,-1.2556,-2.8219,2.9096
6985.0,1.5739,-18.0923,-3.8381,-1.2556,-2.8219,2.9096
6990.0,-0.0065,-11.3997,-1.6534,-1.2556,-2.8219,2.9096
6995.0,-0.0065,-11.3997,-1.6534,-0.17,-1.2514,1.6512
7000.0,-0.0065,-11.3997,-1.6534,-0.17,-1.2514,1.6512
7005.0,-0.0065,-11.3997,-1.6534,-0.17,-1.2514,1.6512
7010.0,-0.0065,-11.3997,-1.6534,-0.17,-1.2514,1.6512
7016.0,-0.0065,-11.3997,-1.6534,-0.17,-1.2514,1.6512
7020.0,1.0567,-7.1572,0.2991,-0.17,-1.2514,1.6512
7025.0,1.0567,-7.1572,0.2991,-0.17,-1.2514,1.6512
7030.0,1.0567,-7.1572,0.2991,-0.2946,-0.8482,2.1992
7036.0,1.0567,-7.1572,0.2991,-0.2946,-0.8482,2.1992
7040.0,1.0567,-7.1572,0.2991,-0.2946,-0.8482,2.1992
7045.0,-0.5046,-8.0582,-1.4449,-0.2946,-0.8482,2.1992
7050.0,-0.5046,-8.0582,-1.4449,-0.2946,-0.8482,2.1992
7055.0,-0.5046,-8.0582,-1.4449,-0.2946,-0.8482,2.1992
7060.0,-0.5046,-8.0582,-1.4449,0.0682,-0.8873,1.8913
7065.0,-0.5046,-8.0582,-1.4449,0.0682,-0.8873,1.8913
7070.0,-0.5046,-8.0582,-1.4449,0.0682,-0.8873,1.8913
7075.0,-1.769,-9.145,-2.2079,0.0682,-0.8873,1.8913
7080.0,-1.769,-9.145,-2.2079,0.0682,-0.8873,1.8913
7085.0,-1.769,-9.145,-2.2079,0.0682,-0.8873,1.8913
7090.0,-1.769,-9.145,-2.2079,0.4811,-0.9319,1.4069
7096.0,-1.769,-9.145,-2.2079,0.4811,-0.9319,1.4069
7100.0,-1.9893,-8.6779,-1.6439,0.4811,-0.9319,1.4069
7105.0,-1.9893,-8.6779,-1.6439,0.4811,-0.9319,1.4069
7110.0,-1.9893,-8.6779,-1.6439,0.4811,-0.9319,1.4069
7116.0,-1.9893,-8.6779,-1.6439,0.4811,-0.9319,1.4069
7120.0,-1.9893,-8.6779,-1.6439,0.1965,-0.6539,1.5963
7125.0,-1.9893,-8.6779,-1.6439,0.1965,-0.6539,1.5963
7130.0,-1.3954,-8.3775,-0.9094,0.1965,-0.6539,1.5963
7136.0,-1.3954,-8.3775,-0.9094,0.1965,-0.6539,1.5963
7141.0,-1.3954,-8.3775,-0.9094,0.1965,-0.6539,1.5963
7145.0,-1.3954,-8.3775,-0.9094,-0.1462,-0.4151,1.2859
7150.0,-1.3954,-8.3775,-0.9094,-0.1462,-0.4151,1.2859
7155.0,-0.859,-8.8447,0.3275,-0.1462,-0.4151,1.2859
7161.0,-0.859,-8.8447,0.3275,-0.1462,-0.4151,1.2859
7165.0,-0.859,-8.8447,0.3275,-0.1462,-0.4151,1.2859
7170.0,-0.859,-8.8447,0.3275,-0.1462,-0.4151,1.2859
7175.0,-0.859,-8.8447,0.3275,-0.1462,-0.4151,1.2859
7180.0,-0.859,-8.8447,0.3275,-0.2763,0.3937,0.8571
7185.0,-0.859,-8.8447,0.3275,-0.2763,0.3937,0.8571
7191.0,-0.4328,-8.8495,0.7777,-0.2763,0.3937,0.8571
7195.0,-0.4328,-8.8495,0.7777,-0.2763,0.3937,0.8571
7200.0,-0.4328,-8.8495,0.7777,-0.2763,0.3937,0.8571
7205.0,-0.4328,-8.8495,0.7777,-0.2763,0.3937,0.8571
7210.0,-0.4328,-8.8495,0.7777,-0.123,1.3241,0.6708
7215.0,-0.2939,-8.5349,0.4555,-0.123,1.3241,0.6708
7220.0,-0.2939,-8.5349,0.4555,-0.123,1.3241,0.6708
7225.0,-0.2939,-8.5349,0.4555,-0.123,1.3241,0.6708
7230.0,-0.2939,-8.5349,0.4555,-0.123,1.3241,0.6708
7236.0,-0.2939,-8.5349,0.4555,-0.123,1.3241,0.6708
7240.0,-0.701,-9.1593,-0.2886,-0.1279,1.5153,0.8296
7245.0,-0.701,-9.1593,-0.2886,-0.1279,1.5153,0.8296
7250.0,-0.701,-9.1593,-0.2886,-0.1279,1.5153,0.8296
7255.0,-0.701,-9.1593,-0.2886,-0.1279,1.5153,0.8296
7260.0,-0.701,-9.1593,-0.2886,-0.1279,1.5153,0.8296
7265.0,-0.701,-9.1593,-0.2886,-0.1279,1.5153,0.8296
7270.0,-1.1943,-10.2128,-0.6772,-0.1865,1.1188,0.9292
7275.0,-1.1943,-10.2128,-0.6772,-0.1865,1.1188,0.9292
7280.0,-1.1943,-10.2128,-0.6772,-0.1865,1.1188,0.9292
7286.0,-1.1943,-10.2128,-0.6772,-0.1865,1.1188,0.9292
7291.0,-1.1943,-10.2128,-0.6772,-0.1865,1.1188,0.9292
7295.0,-1.1943,-10.2128,-0.6772,-0.1865,1.1188,0.9292
7300.0,-1.8983,-10.413,-0.4213,0.0474,0.5996,0.8437
7306.0,-1.8983,-10.413,-0.4213,0.0474,0.5996,0.8437
7310.0,-1.8983,-10.413,-0.4213,0.0474,0.5996,0.8437
7315.0,-1.8983,-10.413,-0.4213,0.0474,0.5996,0.8437
7320.0,-1.8983,-10.413,-0.4213,0.0474,0.5996,0.8437
7325.0,-1.6636,-9.1259,-0.1085,0.0474,0.5996,0.8437
7330.0,-1.6636,-9.1259,-0.1085,0.3981,0.2074,0.8235
7335.0,-1.6636,-9.1259,-0.1085,0.3981,0.2074,0.8235
7340.0,-1.6636,-9.1259,-0.1085,0.3981,0.2074,0.8235
7345.0,-1.6636,-9.1259,-0.1085,0.3981,0.2074,0.8235
7350.0,-0.5573,-9.3071,-1.606,0.3981,0.2074,0.8235
7356.0,-0.5573,-9.3071,-1.606,0.3981,0.2074,0.8235
7361.0,-0.5573,-9.3071,-1.606,0.4372,-0.3943,1.366
7365.0,-0.5573,-9.3071,-1.606,0.4372,-0.3943,1.366
7370.0,-0.5573,-9.3071,-1.606,0.4372,-0.3943,1.366
7375.0,-0.5573,-9.3071,-1.606,0.4372,-0.3943,1.366
7380.0,-0.1358,-11.2138,-4.0845,0.4372,-0.3943,1.366
7385.0,-0.1358,-11.2138,-4.0845,0.4372,-0.3943,1.366
7390.0,-0.1358,-11.2138,-4.0845,0.0547,-0.9191,0.3941
7396.0,-0.1358,-11.2138,-4.0845,0.0547,-0.9191,0.3941
7400.0,-0.1358,-11.2138,-4.0845,0.0547,-0.9191,0.3941
7405.0,-1.8121,-13.0967,-0.2791,0.0547,-0.9191,0.3941
7410.0,-1.8121,-13.0967,-0.2791,0.0547,-0.9191,0.3941
7415.0,-1.8121,-13.0967,-0.2791,0.0547,-0.9191,0.3941
7420.0,-1.8121,-13.0967,-0.2791,0.0547,-0.9191,0.3941
7426.0,-1.8121,-13.0967,-0.2791,0.5618,-1.0217,0.2627
7430.0,-1.8121,-13.0967,-0.2791,0.5618,-1.0217,0.2627
7435.0,-1.5966,-11.5522,0.1427,0.5618,-1.0217,0.2627
7441.0,-1.5966,-11.5522,0.1427,0.5618,-1.0217,0.2627
7445.0,-1.5966,-11.5522,0.1427,0.5618,-1.0217,0.2627
7450.0,-1.5966,-11.5522,0.1427,0.5618,-1.0217,0.2627
7455.0,-1.5966,-11.5522,0.1427,0.5502,-0.4481,1.3708
7460.0,0.2473,-11.2901,-2.9235,0.5502,-0.4481,1.3708
7466.0,0.2473,-11.2901,-2.9235,0.5502,-0.4481,1.3708
7471.0,0.2473,-11.2901,-2.9235,0.5502,-0.4481,1.3708
7475.0,0.2473,-11.2901,-2.9235,0.5502,-0.4481,1.3708
7480.0,0.2473,-11.2901,-2.9235,0.5502,-0.4481,1.3708
7486.0,0.2473,-11.2901,-2.9235,0.202,0.6356,0.2462
7490.0,0.2473,-11.2901,-2.9235,0.202,0.6356,0.2462
7495.0,0.6735,-12.7106,-3.0183,0.202,0.6356,0.2462
7500.0,0.6735,-12.7106,-3.0183,0.202,0.6356,0.2462
7505.0,0.6735,-12.7106,-3.0183,0.202,0.6356,0.2462
7510.0,0.6735,-12.7106,-3.0183,0.202,0.6356,0.2462
7515.0,0.6735,-12.7106,-3.0183,0.2075,0.2941,-0.3512
7520.0,-0.1263,-14.0929,-1.4923,0.2075,0.2941,-0.3512
7525.0,-0.1263,-14.0929,-1.4923,0.2075,0.2941,-0.3512
7530.0,-0.1263,-14.0929,-1.4923,0.2075,0.2941,-0.3512
7535.0,-0.1263,-14.0929,-1.4923,0.2075,0.2941,-0.3512
7540.0,-0.1263,-14.0929,-1.4923,0.2075,0.2941,-0.3512
7546.0,-1.1655,-15.0129,1.1379,0.2075,0.2941,-0.3512
7550.0,-1.1655,-15.0129,1.1379,0.0395,-0.9172,-0.9511
7555.0,-1.1655,-15.0129,1.1379,0.0395,-0.9172,-0.9511
7560.0,-1.1655,-15.0129,1.1379,0.0395,-0.9172,-0.9511
7566.0,-1.1655,-15.0129,1.1379,0.0395,-0.9172,-0.9511
7571.0,-1.1655,-15.0129,1.1379,0.0395,-0.9172,-0.9511
7575.0,-1.1655,-15.0129,1.1379,0.0395,-0.9172,-0.9511
7581.0,-1.745,-14.0786,2.6591,-0.0423,-1.1701,-1.4184
7585.0,-1.745,-14.0786,2.6591,-0.0423,-1.1701,-1.4184
7590.0,-1.745,-14.0786,2.6591,-0.0423,-1.1701,-1.4184
7596.0,-1.745,-14.0786,2.6591,-0.0423,-1.1701,-1.4184
7600.0,-1.745,-14.0786,2.6591,-0.0423,-1.1701,-1.4184
7606.0,-0.1119,-9.7408,1.498,-0.0423,-1.1701,-1.4184
7610.0,-0.1119,-9.7408,1.498,0.0957,-0.1921,-1.587
7615.0,-0.1119,-9.7408,1.498,0.0957,-0.1921,-1.587
7620.0,-0.1119,-9.7408,1.498,0.0957,-0.1921,-1.587
7626.0,-0.1119,-9.7408,1.498,0.0957,-0.1921,-1.587
7630.0,2.3785,-7.9485,0.2706,0.0957,-0.1921,-1.587
7635.0,2.3785,-7.9485,0.2706,0.0957,-0.1921,-1.587
7640.0,2.3785,-7.9485,0.2706,-0.5903,1.1518,-1.5723
7646.0,2.3785,-7.9485,0.2706,-0.5903,1.1518,-1.5723
7650.0,2.3785,-7.9485,0.2706,-0.5903,1.1518,-1.5723
7655.0,0.1228,-11.1042,-4.2409,-0.5903,1.1518,-1.5723
7660.0,0.1228,-11.1042,-4.2409,-0.5903,1.1518,-1.5723
7666.0,0.1228,-11.1042,-4.2409,-0.5903,1.1518,-1.5723
7670.0,0.1228,-11.1042,-4.2409,-0.6893,2.6949,-3.4135
7676.0,0.1228,-11.1042,-4.2409,-0.6893,2.6949,-3.4135
7680.0,0.1228,-11.1042,-4.2409,-0.6893,2.6949,-3.4135
7685.0,-1.4481,-12.9584,-6.7289,-0.6893,2.6949,-3.4135
7690.0,-1.4481,-12.9584,-6.7289,-0.6893,2.6949,-3.4135
7695.0,-1.4481,-12.9584,-6.7289,-0.6893,2.6949,-3.4135
7701.0,-1.4481,-12.9584,-6.7289,-0.4266,1.6723,-4.1038
7706.0,-1.4481,-12.9584,-6.7289,-0.4266,1.6723,-4.1038
7710.0,-3.2488,-11.2948,-11.6149,-0.4266,1.6723,-4.1038
7715.0,-3.2488,-11.2948,-11.6149,-0.4266,1.6723,-4.1038
7721.0,-3.2488,-11.2948,-11.6149,-0.4266,1.6723,-4.1038
7725.0,-3.2488,-11.2948,-11.6149,-0.4266,1.6723,-4.1038
7730.0,-3.2488,-11.2948,-11.6149,-0.4266,1.6723,-4.1038
7736.0,0.7693,-9.3976,-1.2459,-0.4663,-4.3008,-3.2596
7740.0,0.7693,-9.3976,-1.2459,-0.4663,-4.3008,-3.2596
7745.0,0.7693,-9.3976,-1.2459,-0.4663,-4.3008,-3.2596
7750.0,0.7693,-9.3976,-1.2459,-0.4663,-4.3008,-3.2596
7755.0,0.7693,-9.3976,-1.2459,-0.4663,-4.3008,-3.2596
7760.0,0.7693,-9.3976,-1.2459,-0.4663,-4.3008,-3.2596
7765.0,2.6946,-9.3976,4.1093,-0.8713,-6.5177,-1.5668
7770.0,2.6946,-9.3976,4.1093,-0.8713,-6.5177,-1.5668
7776.0,2.6946,-9.3976,4.1093,-0.8713,-6.5177,-1.5668
7780.0,2.6946,-9.3976,4.1093,-0.8713,-6.5177,-1.5668
7785.0,2.6946,-9.3976,4.1093,-0.8713,-6.5177,-1.5668
7790.0,1.6122,-10.351,9.2701,-0.8713,-6.5177,-1.5668
7795.0,1.6122,-10.351,9.2701,-0.666,-1.8366,-0.7189
7801.0,1.6122,-10.351,9.2701,-0.666,-1.8366,-0.7189
7805.0,1.6122,-10.351,9.2701,-0.666,-1.8366,-0.7189
7810.0,1.6122,-10.351,9.2701,-0.666,-1.8366,-0.7189
7815.0,1.6122,-10.351,9.2701,-0.666,-1.8366,-0.7189
7820.0,0.4197,-8.0963,2.934,-0.666,-1.8366,-0.7189
7825.0,0.4197,-8.0963,2.934,-0.666,-1.8366,-0.7189
7830.0,0.4197,-8.0963,2.934,0.3187,4.1328,-1.5387
7835.0,0.4197,-8.0963,2.934,0.3187,4.1328,-1.5387
7840.0,0.4197,-8.0963,2.934,0.3187,4.1328,-1.5387
7847.0,-2.1042,-10.5464,-7.3213,0.3187,4.1328,-1.5387
7851.0,-2.1042,-10.5464,-7.3213,0.3187,4.1328,-1.5387
7855.0,-2.1042,-10.5464,-7.3213,0.3187,4.1328,-1.5387
7860.0,-2.1042,-10.5464,-7.3213,1.2551,2.2208,-4.9431
7866.0,-2.1042,-10.5464,-7.3213,1.2551,2.2208,-4.9431
7870.0,-0.1837,-9.6312,-4.6532,1.2551,2.2208,-4.9431
7876.0,-0.1837,-9.6312,-4.6532,1.2551,2.2208,-4.9431
7880.0,-0.1837,-9.6312,-4.6532,1.2551,2.2208,-4.9431
7885.0,-0.1837,-9.6312,-4.6532,1.2551,2.2208,-4.9431
7890.0,-0.1837,-9.6312,-4.6532,0.5899,3.6008,-4.4617
7896.0,-0.1837,-9.6312,-4.6532,0.5899,3.6008,-4.4617
7900.0,1.7463,-7.6053,-5.3072,0.5899,3.6008,-4.4617
7905.0,1.7463,-7.6053,-5.3072,0.5899,3.6008,-4.4617
7910.0,1.7463,-7.6053,-5.3072,0.5899,3.6008,-4.4617
7915.0,1.7463,-7.6053,-5.3072,0.5899,3.6008,-4.4617
7921.0,1.7463,-7.6053,-5.3072,0.0792,0.9771,-2.9419
7925.0,0.8603,-6.938,-4.2409,0.0792,0.9771,-2.9419
7930.0,0.8603,-6.938,-4.2409,0.0792,0.9771,-2.9419
7935.0,0.8603,-6.938,-4.2409,0.0792,0.9771,-2.9419
7940.0,0.8603,-6.938,-4.2409,0.0792,0.9771,-2.9419
7945.0,0.8603,-6.938,-4.2409,0.0792,0.9771,-2.9419
7950.0,0.8603,-6.938,-4.2409,0.0792,0.9771,-2.9419
7955.0,-0.5764,-4.8882,-1.2032,0.7487,-0.142,-1.8258
7960.0,-0.5764,-4.8882,-1.2032,0.7487,-0.142,-1.8258
7966.0,-0.5764,-4.8882,-1.2032,0.7487,-0.142,-1.8258
7970.0,-0.5764,-4.8882,-1.2032,0.7487,-0.142,-1.8258
7976.0,-0.5764,-4.8882,-1.2032,0.7487,-0.142,-1.8258
7980.0,-1.1224,-3.4868,-2.8287,0.7487,-0.142,-1.8258
7985.0,-1.1224,-3.4868,-2.8287,0.7304,0.7969,-1.4624
7990.0,-1.1224,-3.4868,-2.8287,0.7304,0.7969,-1.4624
7995.0,-1.1224,-3.4868,-2.8287,0.7304,0.7969,-1.4624
8001.0,-1.1224,-3.4868,-2.8287,0.7304,0.7969,-1.4624
8005.0,-1.1224,-3.4868,-2.8287,0.7304,0.7969,-1.4624
8010.0,-0.6483,-3.3104,-3.6817,0.7304,0.7969,-1.4624
8015.0,-0.6483,-3.3104,-3.6817,0.4011,1.0461,-0.6872
8021.0,-0.6483,-3.3104,-3.6817,0.4011,1.0461,-0.6872
8025.0,-0.6483,-3.3104,-3.6817,0.4011,1.0461,-0.6872
8030.0,-0.6483,-3.3104,-3.6817,0.4011,1.0461,-0.6872
8036.0,0.4245,-3.3962,-4.5348,0.4011,1.0461,-0.6872
8040.0,0.4245,-3.3962,-4.5348,0.4011,1.0461,-0.6872
8045.0,0.4245,-3.3962,-4.5348,0.4347,0.6747,0.8168
8050.0,0.4245,-3.3962,-4.5348,0.4347,0.6747,0.8168
8055.0,0.4245,-3.3962,-4.5348,0.4347,0.6747,0.8168
8060.0,1.7511,-1.1606,-5.4447,0.4347,0.6747,0.8168
8065.0,1.7511,-1.1606,-5.4447,0.4347,0.6747,0.8168
8070.0,1.7511,-1.1606,-5.4447,0.4347,0.6747,0.8168
8076.0,1.7511,-1.1606,-5.4447,0.3254,0.1341,2.358
8080.0,1.7511,-1.1606,-5.4447,0.3254,0.1341,2.358
8087.0,-0.3897,-1.0319,-7.0038,0.3254,0.1341,2.358
8090.0,-0.3897,-1.0319,-7.0038,0.3254,0.1341,2.358
8095.0,-0.3897,-1.0319,-7.0038,0.3254,0.1341,2.358
8100.0,-0.3897,-1.0319,-7.0038,0.3254,0.1341,2.358
8105.0,-0.3897,-1.0319,-7.0038,0.3254,0.1341,2.358
8110.0,-0.3897,-1.0319,-7.0038,0.2588,-0.3723,3.0703
8115.0,-3.972,-3.3629,-9.0132,0.2588,-0.3723,3.0703
8120.0,-3.972,-3.3629,-9.0132,0.2588,-0.3723,3.0703
8125.0,-3.972,-3.3629,-9.0132,0.2588,-0.3723,3.0703
8131.0,-3.972,-3.3629,-9.0132,0.2588,-0.3723,3.0703
8135.0,-3.972,-3.3629,-9.0132,0.2588,-0.3723,3.0703
8140.0,-3.972,-3.3629,-9.0132,-0.0356,-2.3674,2.8192
8145.0,2.0768,-5.0503,-3.4353,-0.0356,-2.3674,2.8192
8151.0,2.0768,-5.0503,-3.4353,-0.0356,-2.3674,2.8192
8155.0,2.0768,-5.0503,-3.4353,-0.0356,-2.3674,2.8192
8160.0,2.0768,-5.0503,-3.4353,-0.0356,-2.3674,2.8192
8165.0,2.0768,-5.0503,-3.4353,-0.0356,-2.3674,2.8192
8170.0,10.3478,-16.0092,-4.0324,-2.4223,-0.4328,2.3275
8175.0,10.3478,-16.0092,-4.0324,-2.4223,-0.4328,2.3275
8180.0,10.3478,-16.0092,-4.0324,-2.4223,-0.4328,2.3275
8185.0,10.3478,-16.0092,-4.0324,-2.4223,-0.4328,2.3275
8191.0,10.3478,-16.0092,-4.0324,-2.4223,-0.4328,2.3275
8196.0,5.4723,-29.4087,-15.046,-2.4223,-0.4328,2.3275
8200.0,5.4723,-29.4087,-15.046,-2.4223,-0.4328,2.3275
8206.0,5.4723,-29.4087,-15.046,-2.7448,-1.0779,1.0312
8210.0,5.4723,-29.4087,-15.046,-2.7448,-1.0779,1.0312
8215.0,5.4723,-29.4087,-15.046,-2.7448,-1.0779,1.0312
8220.0,5.4723,-29.4087,-15.046,-2.7448,-1.0779,1.0312
8225.0,1.2626,-9.2499,-2.7481,-2.7448,-1.0779,1.0312
8230.0,1.2626,-9.2499,-2.7481,-2.7448,-1.0779,1.0312
8235.0,1.2626,-9.2499,-2.7481,0.0456,-2.2807,2.0495
8240.0,1.2626,-9.2499,-2.7481,0.0456,-2.2807,2.0495
8245.0,1.2626,-9.2499,-2.7481,0.0456,-2.2807,2.0495
8250.0,0.6065,-0.8651,-0.6345,0.0456,-2.2807,2.0495
8255.0,0.6065,-0.8651,-0.6345,0.0456,-2.2807,2.0495
8260.0,0.6065,-0.8651,-0.6345,0.0456,-2.2807,2.0495
8265.0,0.6065,-0.8651,-0.6345,-0.2714,-1.6484,2.6714
8270.0,0.6065,-0.8651,-0.6345,-0.2714,-1.6484,2.6714
8275.0,0.6065,-0.8651,-0.6345,-0.2714,-1.6484,2.6714
8280.0,0.8028,-3.115,-0.118,-0.2714,-1.6484,2.6714
8285.0,0.8028,-3.115,-0.118,-0.2714,-1.6484,2.6714
8290.0,0.8028,-3.115,-0.118,-0.2714,-1.6484,2.6714
8296.0,0.8028,-3.115,-0.118,-0.6025,-1.5299,2.2725
8300.0,0.8028,-3.115,-0.118,-0.6025,-1.5299,2.2725
8305.0,0.7358,-9.7933,1.3985,-0.6025,-1.5299,2.2725
8311.0,0.7358,-9.7933,1.3985,-0.6025,-1.5299,2.2725
8315.0,0.7358,-9.7933,1.3985,-0.6025,-1.5299,2.2725
8320.0,0.7358,-9.7933,1.3985,-0.6025,-1.5299,2.2725
8325.0,0.7358,-9.7933,1.3985,-0.6025,-1.5299,2.2725
8330.0,0.7358,-9.7933,1.3985,-0.1749,-0.7779,1.9151
8335.0,0.9992,-16.0521,1.3132,-0.1749,-0.7779,1.9151
8340.0,0.9992,-16.0521,1.3132,-0.1749,-0.7779,1.9151
8345.0,0.9992,-16.0521,1.3132,-0.1749,-0.7779,1.9151
8352.0,0.9992,-16.0521,1.3132,-0.1749,-0.7779,1.9151
8355.0,0.9992,-16.0521,1.3132,-0.1749,-0.7779,1.9151
8361.0,0.9992,-16.0521,1.3132,0.1348,1.1915,2.0404
8365.0,-3.426,-14.2789,-2.8713,0.1348,1.1915,2.0404
8370.0,-3.426,-14.2789,-2.8713,0.1348,1.1915,2.0404
8375.0,-3.426,-14.2789,-2.8713,0.1348,1.1915,2.0404
8380.0,-3.426,-14.2789,-2.8713,0.1348,1.1915,2.0404
8385.0,-3.426,-14.2789,-2.8713,0.1348,1.1915,2.0404
8390.0,-2.8561,-7.653,-4.2409,0.7573,0.018,1.7154
8398.0,-2.8561,-7.653,-4.2409,0.7573,0.018,1.7154
8402.0,-2.8561,-7.653,-4.2409,0.7573,0.018,1.7154
8405.0,-2.8561,-7.653,-4.2409,0.7573,0.018,1.7154
8410.0,-2.8561,-7.653,-4.2409,0.7573,0.018,1.7154
8415.0,-2.8561,-7.653,-4.2409,0.7573,0.018,1.7154
8427.0,-1.2948,-6.4327,-0.6914,0.7573,0.018,1.7154
8427.0,-1.2948,-6.4327,-0.6914,0.7573,0.018,1.7154
8430.0,-1.2948,-6.4327,-0.6914,0.2759,-0.6674,1.5156
8436.0,-1.2948,-6.4327,-0.6914,0.2759,-0.6674,1.5156
8440.0,-1.2948,-6.4327,-0.6914,0.2759,-0.6674,1.5156
8445.0,-0.6052,-7.2907,0.3891,0.2759,-0.6674,1.5156
8450.0,-0.6052,-7.2907,0.3891,0.2759,-0.6674,1.5156
8456.0,-0.6052,-7.2907,0.3891,0.2759,-0.6674,1.5156
8460.0,-0.6052,-7.2907,0.3891,-0.1493,1.076,1.2419
8465.0,-0.6052,-7.2907,0.3891,-0.1493,1.076,1.2419
8471.0,0.8795,-9.3786,-0.9615,-0.1493,1.076,1.2419
8475.0,0.8795,-9.3786,-0.9615,-0.1493,1.076,1.2419
8480.0,0.8795,-9.3786,-0.9615,-0.1493,1.076,1.2419
8485.0,0.8795,-9.3786,-0.9615,-0.1493,1.076,1.2419
8490.0,0.8795,-9.3786,-0.9615,0.1024,2.6716,0.9359
8495.0,0.8795,-9.3786,-0.9615,0.1024,2.6716,0.9359
8500.0,0.7119,-9.5359,-1.9615,0.1024,2.6716,0.9359
8505.0,0.7119,-9.5359,-1.9615,0.1024,2.6716,0.9359
8511.0,0.7119,-9.5359,-1.9615,0.1024,2.6716,0.9359
8515.0,0.7119,-9.5359,-1.9615,0.1024,2.6716,0.9359
8520.0,0.7119,-9.5359,-1.9615,0.0328,1.8366,0.9286
8525.0,-0.7728,-8.8018,-1.3359,0.0328,1.8366,0.9286
8530.0,-0.7728,-8.8018,-1.3359,0.0328,1.8366,0.9286
8535.0,-0.7728,-8.8018,-1.3359,0.0328,1.8366,0.9286
8541.0,-0.7728,-8.8018,-1.3359,0.0328,1.8366,0.9286
8545.0,-0.7728,-8.8018,-1.3359,0.0328,1.8366,0.9286
8550.0,-1.6732,-8.0248,0.5076,0.0572,0.2379,0.6555
8555.0,-1.6732,-8.0248,0.5076,0.0572,0.2379,0.6555
8561.0,-1.6732,-8.0248,0.5076,0.0572,0.2379,0.6555
8565.0,-1.6732,-8.0248,0.5076,0.0572,0.2379,0.6555
8571.0,-1.6732,-8.0248,0.5076,0.0572,0.2379,0.6555
8577.0,-1.6732,-8.0248,0.5076,0.0572,0.2379,0.6555
8580.0,-1.5247,-7.8151,0.5455,0.3089,-0.4481,0.416
8586.0,-1.5247,-7.8151,0.5455,0.3089,-0.4481,0.416
8592.0,-1.5247,-7.8151,0.5455,0.3089,-0.4481,0.416
8595.0,-1.5247,-7.8151,0.5455,0.3089,-0.4481,0.416
8600.0,-1.5247,-7.8151,0.5455,0.3089,-0.4481,0.416
8605.0,-1.7929,-9.9125,0.7967,0.3089,-0.4481,0.416
8610.0,-1.7929,-9.9125,0.7967,0.3089,-0.4481,0.416
8615.0,-1.7929,-9.9125,0.7967,0.5826,-0.6026,0.5761
8620.0,-1.7929,-9.9125,0.7967,0.5826,-0.6026,0.5761
8625.0,-1.7929,-9.9125,0.7967,0.5826,-0.6026,0.5761
8630.0,-1.7929,-9.9125,0.7967,0.5826,-0.6026,0.5761
8635.0,-1.5056,-11.7429,1.1426,0.5826,-0.6026,0.5761
8640.0,-1.5056,-11.7429,1.1426,0.5826,-0.6026,0.5761
8645.0,-1.5056,-11.7429,1.1426,0.874,0.0437,1.7117
8650.0,-1.5056,-11.7429,1.1426,0.874,0.0437,1.7117
8655.0,-1.5056,-11.7429,1.1426,0.874,0.0437,1.7117
8660.0,-0.9979,-11.2567,0.5645,0.874,0.0437,1.7117
8665.0,-0.9979,-11.2567,0.5645,0.874,0.0437,1.7117
8670.0,-0.9979,-11.2567,0.5645,0.874,0.0437,1.7117
8675.0,-0.9979,-11.2567,0.5645,0.5251,0.0125,2.0972
8680.0,-0.9979,-11.2567,0.5645,0.5251,0.0125,2.0972
8685.0,1.4111,-10.6608,-2.8524,0.5251,0.0125,2.0972
8690.0,1.4111,-10.6608,-2.8524,0.5251,0.0125,2.0972
8695.0,1.4111,-10.6608,-2.8524,0.5251,0.0125,2.0972
8700.0,1.4111,-10.6608,-2.8524,0.5251,0.0125,2.0972
8705.0,1.4111,-10.6608,-2.8524,-0.1902,2.2935,0.1534
8710.0,1.4111,-10.6608,-2.8524,-0.1902,2.2935,0.1534
8715.0,1.2626,-11.6809,-4.2599,-0.1902,2.2935,0.1534
8721.0,1.2626,-11.6809,-4.2599,-0.1902,2.2935,0.1534
8725.0,1.2626,-11.6809,-4.2599,-0.1902,2.2935,0.1534
8730.0,1.2626,-11.6809,-4.2599,-0.1902,2.2935,0.1534
8735.0,1.2626,-11.6809,-4.2599,-0.2268,0.715,-0.2119
8740.0,-1.2996,-12.2148,-1.8856,-0.2268,0.715,-0.2119
8745.0,-1.2996,-12.2148,-1.8856,-0.2268,0.715,-0.2119
8750.0,-1.2996,-12.2148,-1.8856,-0.2268,0.715,-0.2119
8755.0,-1.2996,-12.2148,-1.8856,-0.2268,0.715,-0.2119
8760.0,-1.2996,-12.2148,-1.8856,-0.2268,0.715,-0.2119
8765.0,-2.473,-11.7572,0.2943,-0.2268,0.715,-0.2119
8770.0,-2.473,-11.7572,0.2943,0.1886,-0.9667,0.6256
8775.0,-2.473,-11.7572,0.2943,0.1886,-0.9667,0.6256
8780.0,-2.473,-11.7572,0.2943,0.1886,-0.9667,0.6256
8785.0,-2.473,-11.7572,0.2943,0.1886,-0.9667,0.6256
8790.0,-2.473,-11.7572,0.2943,0.1886,-0.9667,0.6256
8795.0,-2.0372,-11.6809,1.0478,0.1886,-0.9667,0.6256
8800.0,-2.0372,-11.6809,1.0478,0.3346,-0.0559,0.7239
8805.0,-2.0372,-11.6809,1.0478,0.3346,-0.0559,0.7239
8810.0,-2.0372,-11.6809,1.0478,0.3346,-0.0559,0.7239
8815.0,-2.0372,-11.6809,1.0478,0.3346,-0.0559,0.7239
8820.0,-0.9883,-13.6592,0.0195,0.3346,-0.0559,0.7239
8825.0,-0.9883,-13.6592,0.0195,0.3346,-0.0559,0.7239
8830.0,-0.9883,-13.6592,0.0195,0.2405,1.2843,0.1283
8835.0,-0.9883,-13.6592,0.0195,0.2405,1.2843,0.1283
8840.0,-0.9883,-13.6592,0.0195,0.2405,1.2843,0.1283
8845.0,-0.61,-14.8175,-0.2554,0.2405,1.2843,0.1283
8851.0,-0.61,-14.8175,-0.2554,0.2405,1.2843,0.1283
8855.0,-0.61,-14.8175,-0.2554,0.2405,1.2843,0.1283
8860.0,-0.61,-14.8175,-0.2554,0.0792,0.1756,-0.7916
8865.0,-0.61,-14.8175,-0.2554,0.0792,0.1756,-0.7916
8871.0,-0.3466,-14.05,0.7161,0.0792,0.1756,-0.7916
8875.0,-0.3466,-14.05,0.7161,0.0792,0.1756,-0.7916
8880.0,-0.3466,-14.05,0.7161,0.0792,0.1756,-0.7916
8885.0,-0.3466,-14.05,0.7161,0.0792,0.1756,-0.7916
8890.0,-0.3466,-14.05,0.7161,0.0792,0.1756,-0.7916
8895.0,-0.3466,-14.05,0.7161,-0.0759,-0.2007,-0.9566
8900.0,0.391,-11.4617,1.2137,-0.0759,-0.2007,-0.9566
8905.0,0.391,-11.4617,1.2137,-0.0759,-0.2007,-0.9566
8910.0,0.391,-11.4617,1.2137,-0.0759,-0.2007,-0.9566
8916.0,0.391,-11.4617,1.2137,-0.0759,-0.2007,-0.9566
8920.0,0.391,-11.4617,1.2137,-0.0759,-0.2007,-0.9566
8925.0,2.048,-8.5062,-0.2838,-0.3166,0.5031,-0.9358
8930.0,2.048,-8.5062,-0.2838,-0.3166,0.5031,-0.9358
8935.0,2.048,-8.5062,-0.2838,-0.3166,0.5031,-0.9358
8941.0,2.048,-8.5062,-0.2838,-0.3166,0.5031,-0.9358
8945.0,2.048,-8.5062,-0.2838,-0.3166,0.5031,-0.9358
8950.0,1.2578,-9.0211,-3.2647,-0.3166,0.5031,-0.9358
8955.0,1.2578,-9.0211,-3.2647,-0.7186,0.9233,-1.893
8961.0,1.2578,-9.0211,-3.2647,-0.7186,0.9233,-1.893
8965.0,1.2578,-9.0211,-3.2647,-0.7186,0.9233,-1.893
8971.0,1.2578,-9.0211,-3.2647,-0.7186,0.9233,-1.893
8975.0,1.2578,-9.0211,-3.2647,-0.7186,0.9233,-1.893
8981.0,1.2578,-9.0211,-3.2647,-0.7186,0.9233,-1.893
8986.0,1.2578,-9.0211,-3.2647,-0.7186,0.9233,-1.893
8991.0,-0.8063,-10.9469,-4.4731,-0.5426,0.3277,-3.069
8995.0,-0.8063,-10.9469,-4.4731,-0.5426,0.3277,-3.069
9000.0,-0.8063,-10.9469,-4.4731,-0.5426,0.3277,-3.069
9005.0,-0.8063,-10.9469,-4.4731,-0.5426,0.3277,-3.069
9010.0,-0.8063,-10.9469,-4.4731,-0.5426,0.3277,-3.069
9015.0,-1.7115,-10.6513,-2.9377,-0.5426,0.3277,-3.069
9020.0,-1.7115,-10.6513,-2.9377,-0.4626,-0.3809,-3.6664
9025.0,-1.7115,-10.6513,-2.9377,-0.4626,-0.3809,-3.6664
9031.0,-1.7115,-10.6513,-2.9377,-0.4626,-0.3809,-3.6664
9035.0,-1.7115,-10.6513,-2.9377,-0.4626,-0.3809,-3.6664
9040.0,-1.7115,-10.6513,-2.9377,-0.4626,-0.3809,-3.6664
9045.0,-1.2948,-11.1375,-3.0941,-0.4626,-0.3809,-3.6664
9050.0,-1.2948,-11.1375,-3.0941,-0.2531,-0.3405,-3.1563
9055.0,-1.2948,-11.1375,-3.0941,-0.2531,-0.3405,-3.1563
9061.0,-1.2948,-11.1375,-3.0941,-0.2531,-0.3405,-3.1563
9065.0,-1.2948,-11.1375,-3.0941,-0.2531,-0.3405,-3.1563
9071.0,-1.2948,-11.1375,-3.0941,-0.2531,-0.3405,-3.1563
9075.0,0.4676,-9.5549,0.3749,-0.2531,-0.3405,-3.1563
9080.0,0.4676,-9.5549,0.3749,-0.3478,-2.1725,-1.8075
9085.0,0.4676,-9.5549,0.3749,-0.3478,-2.1725,-1.8075
9090.0,0.4676,-9.5549,0.3749,-0.3478,-2.1725,-1.8075
9095.0,0.4676,-9.5549,0.3749,-0.3478,-2.1725,-1.8075
9100.0,0.5346,-8.7398,3.3842,-0.3478,-2.1725,-1.8075
9105.0,0.5346,-8.7398,3.3842,-0.3478,-2.1725,-1.8075
9110.0,0.5346,-8.7398,3.3842,-0.3478,-2.1725,-1.8075
9115.0,0.5346,-8.7398,3.3842,-0.3441,-2.4175,-0.6811
9120.0,0.5346,-8.7398,3.3842,-0.3441,-2.4175,-0.6811
9125.0,-2.2096,-9.8886,0.2754,-0.3441,-2.4175,-0.6811
9130.0,-2.2096,-9.8886,0.2754,-0.3441,-2.4175,-0.6811
9135.0,-2.2096,-9.8886,0.2754,-0.3441,-2.4175,-0.6811
9140.0,-2.2096,-9.8886,0.2754,-0.3441,-2.4175,-0.6811
9145.0,-2.2096,-9.8886,0.2754,0.8392,0.3394,-2.2553
9150.0,-2.2096,-9.8886,0.2754,0.8392,0.3394,-2.2553
9155.0,-1.4241,-9.6264,-1.3501,0.8392,0.3394,-2.2553
9160.0,-1.4241,-9.6264,-1.3501,0.8392,0.3394,-2.2553
9166.0,-1.4241,-9.6264,-1.3501,0.8392,0.3394,-2.2553
9170.0,-1.4241,-9.6264,-1.3501,0.8392,0.3394,-2.2553
9175.0,-1.4241,-9.6264,-1.3501,0.8544,1.6387,-3.496
9180.0,-0.4663,-9.4501,-1.4165,0.8544,1.6387,-3.496
9185.0,-0.4663,-9.4501,-1.4165,0.8544,1.6387,-3.496
9190.0,-0.4663,-9.4501,-1.4165,0.8544,1.6387,-3.496
9195.0,-0.4663,-9.4501,-1.4165,0.8544,1.6387,-3.496
9200.0,-0.4663,-9.4501,-1.4165,0.8544,1.6387,-3.496
9205.0,-0.4663,-9.4501,-1.4165,0.155,3.9447,-3.4624
9210.0,2.0672,-8.0868,-3.9234,0.155,3.9447,-3.4624
9215.0,2.0672,-8.0868,-3.9234,0.155,3.9447,-3.4624
9220.0,2.0672,-8.0868,-3.9234,0.155,3.9447,-3.4624
9225.0,2.0672,-8.0868,-3.9234,0.155,3.9447,-3.4624
9231.0,2.0672,-8.0868,-3.9234,0.155,3.9447,-3.4624
9235.0,3.025,-7.939,-8.2644,-0.4363,2.489,-3.2974
9240.0,3.025,-7.939,-8.2644,-0.4363,2.489,-3.2974
9246.0,3.025,-7.939,-8.2644,-0.4363,2.489,-3.2974
9250.0,3.025,-7.939,-8.2644,-0.4363,2.489,-3.2974
9255.0,3.025,-7.939,-8.2644,-0.4363,2.489,-3.2974
9260.0,2.4886,-6.9761,-4.0845,-0.4363,2.489,-3.2974
9265.0,2.4886,-6.9761,-4.0845,-0.2354,-0.1554,-2.7263
9270.0,2.4886,-6.9761,-4.0845,-0.2354,-0.1554,-2.7263
9275.0,2.4886,-6.9761,-4.0845,-0.2354,-0.1554,-2.7263
9281.0,2.4886,-6.9761,-4.0845,-0.2354,-0.1554,-2.7263
9285.0,2.4886,-6.9761,-4.0845,-0.2354,-0.1554,-2.7263
9290.0,0.5921,-6.0084,-2.4828,-0.2354,-0.1554,-2.7263
9295.0,0.5921,-6.0084,-2.4828,0.3236,-0.1664,-1.7947
9300.0,0.5921,-6.0084,-2.4828,0.3236,-0.1664,-1.7947
9305.0,0.5921,-6.0084,-2.4828,0.3236,-0.1664,-1.7947
9310.0,0.5921,-6.0084,-2.4828,0.3236,-0.1664,-1.7947
9315.0,-1.2853,-6.1848,-4.4305,0.3236,-0.1664,-1.7947
9320.0,-1.2853,-6.1848,-4.4305,0.3236,-0.1664,-1.7947
9325.0,-1.2853,-6.1848,-4.4305,0.3236,-0.1664,-1.7947
9330.0,-1.2853,-6.1848,-4.4305,0.3712,0.3687,-1.5668
9335.0,-1.2853,-6.1848,-4.4305,0.3712,0.3687,-1.5668
9340.0,-1.1847,-6.0943,-4.7196,0.3712,0.3687,-1.5668
9346.0,-1.1847,-6.0943,-4.7196,0.3712,0.3687,-1.5668
9351.0,-1.1847,-6.0943,-4.7196,0.3712,0.3687,-1.5668
9355.0,-1.1847,-6.0943,-4.7196,0.3712,0.3687,-1.5668
9360.0,-1.1847,-6.0943,-4.7196,0.2937,0.7584,-1.1343
9365.0,-1.1847,-6.0943,-4.7196,0.2937,0.7584,-1.1343
9370.0,0.2281,-5.3697,-4.2267,0.2937,0.7584,-1.1343
9375.0,0.2281,-5.3697,-4.2267,0.2937,0.7584,-1.1343
9380.0,0.2281,-5.3697,-4.2267,0.2937,0.7584,-1.1343
9385.0,0.2281,-5.3697,-4.2267,0.2937,0.7584,-1.1343
9390.0,0.2281,-5.3697,-4.2267,0.3248,0.58,-0.3347
9395.0,1.8804,-3.2008,-5.3451,0.3248,0.58,-0.3347
9400.0,1.8804,-3.2008,-5.3451,0.3248,0.58,-0.3347
9406.0,1.8804,-3.2008,-5.3451,0.3248,0.58,-0.3347
9410.0,1.8804,-3.2008,-5.3451,0.3248,0.58,-0.3347
9415.0,1.8804,-3.2008,-5.3451,0.3248,0.58,-0.3347
9420.0,1.8804,-3.2008,-5.3451,0.3132,0.0437,0.4142
9425.0,1.6122,-1.4371,-5.3072,0.3132,0.0437,0.4142
9430.0,1.6122,-1.4371,-5.3072,0.3132,0.0437,0.4142
9435.0,1.6122,-1.4371,-5.3072,0.3132,0.0437,0.4142
9440.0,1.6122,-1.4371,-5.3072,0.3132,0.0437,0.4142
9445.0,1.6122,-1.4371,-5.3072,0.3132,0.0437,0.4142
9450.0,-0.2077,-1.5419,-5.9043,0.5294,0.0681,1.2816
9455.0,-0.2077,-1.5419,-5.9043,0.5294,0.0681,1.2816
9461.0,-0.2077,-1.5419,-5.9043,0.5294,0.0681,1.2816
9466.0,-0.2077,-1.5419,-5.9043,0.5294,0.0681,1.2816
9471.0,-0.2077,-1.5419,-5.9043,0.5294,0.0681,1.2816
9475.0,-0.6914,-2.3285,-8.3402,0.5294,0.0681,1.2816
9481.0,-0.6914,-2.3285,-8.3402,0.5368,0.7407,2.3971
9485.0,-0.6914,-2.3285,-8.3402,0.5368,0.7407,2.3971
9491.0,-0.6914,-2.3285,-8.3402,0.5368,0.7407,2.3971
9495.0,-0.6914,-2.3285,-8.3402,0.5368,0.7407,2.3971
9501.0,-0.6914,-2.3285,-8.3402,0.5368,0.7407,2.3971
9506.0,-0.9835,-2.9053,-16.5957,0.5368,0.7407,2.3971
9510.0,-0.9835,-2.9053,-16.5957,0.0023,-0.4236,2.1521
9515.0,-0.9835,-2.9053,-16.5957,0.0023,-0.4236,2.1521
9520.0,-0.9835,-2.9053,-16.5957,0.0023,-0.4236,2.1521
9525.0,-0.9835,-2.9053,-16.5957,0.0023,-0.4236,2.1521
9530.0,5.6352,-7.7817,-7.1413,0.0023,-0.4236,2.1521
9535.0,5.6352,-7.7817,-7.1413,0.0023,-0.4236,2.1521
9540.0,5.6352,-7.7817,-7.1413,-1.765,-2.9716,2.1155
9545.0,5.6352,-7.7817,-7.1413,-1.765,-2.9716,2.1155
9550.0,5.6352,-7.7817,-7.1413,-1.765,-2.9716,2.1155
9555.0,8.6763,-13.0395,0.3417,-1.765,-2.9716,2.1155
9560.0,8.6763,-13.0395,0.3417,-1.765,-2.9716,2.1155
9566.0,8.6763,-13.0395,0.3417,-1.765,-2.9716,2.1155
9570.0,8.6763,-13.0395,0.3417,-1.765,-2.9716,2.1155
9575.0,8.6763,-13.0395,0.3417,-2.5597,1.9691,2.2627
9581.0,8.6763,-13.0395,0.3417,-2.5597,1.9691,2.2627
9585.0,2.3737,-20.3136,-15.8137,-2.5597,1.9691,2.2627
9590.0,2.3737,-20.3136,-15.8137,-2.5597,1.9691,2.2627
9595.0,2.3737,-20.3136,-15.8137,-2.5597,1.9691,2.2627
9601.0,2.3737,-20.3136,-15.8137,-2.5597,1.9691,2.2627
9605.0,2.3737,-20.3136,-15.8137,0.0713,-1.9893,2.1118
9610.0,1.2291,-6.0466,-3.6154,0.0713,-1.9893,2.1118
9615.0,1.2291,-6.0466,-3.6154,0.0713,-1.9893,2.1118
9620.0,1.2291,-6.0466,-3.6154,0.0713,-1.9893,2.1118
9625.0,1.2291,-6.0466,-3.6154,0.0713,-1.9893,2.1118
9631.0,1.2291,-6.0466,-3.6154,0.0713,-1.9893,2.1118
9635.0,0.2712,-2.8194,0.3654,-0.4034,-3.5439,2.9493
9640.0,0.2712,-2.8194,0.3654,-0.4034,-3.5439,2.9493
9645.0,0.2712,-2.8194,0.3654,-0.4034,-3.5439,2.9493
9650.0,0.2712,-2.8194,0.3654,-0.4034,-3.5439,2.9493
9655.0,0.2712,-2.8194,0.3654,-0.4034,-3.5439,2.9493
9660.0,0.2712,-2.8194,0.3654,-0.4034,-3.5439,2.9493
9665.0,-0.0927,-7.3098,-1.2127,-0.8017,-2.7046,3.1191
9670.0,-0.0927,-7.3098,-1.2127,-0.8017,-2.7046,3.1191
9675.0,-0.0927,-7.3098,-1.2127,-0.8017,-2.7046,3.1191
9681.0,-0.0927,-7.3098,-1.2127,-0.8017,-2.7046,3.1191
9685.0,-0.0927,-7.3098,-1.2127,-0.8017,-2.7046,3.1191
9690.0,0.8699,-14.9176,-2.3832,-0.8017,-2.7046,3.1191
9695.0,0.8699,-14.9176,-2.3832,-0.8017,-2.7046,3.1191
9700.0,0.8699,-14.9176,-2.3832,-0.7088,-1.3894,2.4563
9705.0,0.8699,-14.9176,-2.3832,-0.7088,-1.3894,2.4563
9710.0,0.8699,-14.9176,-2.3832,-0.7088,-1.3894,2.4563
9715.0,0.731,-16.0235,-0.2222,-0.7088,-1.3894,2.4563
9720.0,0.731,-16.0235,-0.2222,-0.7088,-1.3894,2.4563
9725.0,0.731,-16.0235,-0.2222,-0.7088,-1.3894,2.4563
9730.0,0.731,-16.0235,-0.2222,-0.7088,-1.3894,2.4563
9735.0,0.731,-16.0235,-0.2222,-0.0778,-0.0461,1.7715
9741.0,0.731,-16.0235,-0.2222,-0.0778,-0.0461,1.7715
9745.0,-1.3236,-11.8811,-0.6819,-0.0778,-0.0461,1.7715
9750.0,-1.3236,-11.8811,-0.6819,-0.0778,-0.0461,1.7715
9756.0,-1.3236,-11.8811,-0.6819,-0.0778,-0.0461,1.7715
9761.0,-1.3236,-11.8811,-0.6819,-0.0778,-0.0461,1.7715
9765.0,-1.3236,-11.8811,-0.6819,0.4073,0.7908,1.873
9770.0,-1.8791,-8.1201,-2.933,0.4073,0.7908,1.873
9775.0,-1.8791,-8.1201,-2.933,0.4073,0.7908,1.873
9780.0,-1.8791,-8.1201,-2.933,0.4073,0.7908,1.873
9786.0,-1.8791,-8.1201,-2.933,0.4073,0.7908,1.873
9790.0,-1.8791,-8.1201,-2.933,0.4073,0.7908,1.873
9795.0,-1.1224,-7.6911,-3.0941,0.4292,0.2477,1.5968
9800.0,-1.1224,-7.6911,-3.0941,0.4292,0.2477,1.5968
9805.0,-1.1224,-7.6911,-3.0941,0.4292,0.2477,1.5968
9811.0,-1.1224,-7.6911,-3.0941,0.4292,0.2477,1.5968
9815.0,-1.1224,-7.6911,-3.0941,0.4292,0.2477,1.5968
9820.0,-1.1224,-7.6911,-3.0941,0.4292,0.2477,1.5968
9825.0,-0.5381,-8.8828,-0.4971,-0.0338,-0.2031,1.5254
9830.0,-0.5381,-8.8828,-0.4971,-0.0338,-0.2031,1.5254
9835.0,-0.5381,-8.8828,-0.4971,-0.0338,-0.2031,1.5254
9840.0,-0.5381,-8.8828,-0.4971,-0.0338,-0.2031,1.5254
9845.0,-0.5381,-8.8828,-0.4971,-0.0338,-0.2031,1.5254
9850.0,-0.4424,-9.0306,0.3465,-0.0338,-0.2031,1.5254
9855.0,-0.4424,-9.0306,0.3465,-0.0564,0.6265,1.4734
9860.0,-0.4424,-9.0306,0.3465,-0.0564,0.6265,1.4734
9866.0,-0.4424,-9.0306,0.3465,-0.0564,0.6265,1.4734
9870.0,-0.4424,-9.0306,0.3465,-0.0564,0.6265,1.4734
9875.0,-0.4424,-9.0306,0.3465,-0.0564,0.6265,1.4734
9880.0,0.209,-7.6768,-1.0326,-0.0564,0.6265,1.4734
9885.0,0.209,-7.6768,-1.0326,0.169,1.1689,0.92
9890.0,0.209,-7.6768,-1.0326,0.169,1.1689,0.92
9896.0,0.209,-7.6768,-1.0326,0.169,1.1689,0.92
9901.0,0.209,-7.6768,-1.0326,0.169,1.1689,0.92
9905.0,0.367,-7.0285,-1.1937,0.169,1.1689,0.92
9910.0,0.367,-7.0285,-1.1937,0.169,1.1689,0.92
9915.0,0.367,-7.0285,-1.1937,0.169,1.1689,0.92
9920.0,0.367,-7.0285,-1.1937,0.0927,0.5018,0.653
9925.0,0.367,-7.0285,-1.1937,0.0927,0.5018,0.653
9930.0,-0.0975,-7.2812,-0.4544,0.0927,0.5018,0.653
9936.0,-0.0975,-7.2812,-0.4544,0.0927,0.5018,0.653
9940.0,-0.0975,-7.2812,-0.4544,0.0927,0.5018,0.653
9945.0,-0.0975,-7.2812,-0.4544,0.0927,0.5018,0.653
9950.0,-0.0975,-7.2812,-0.4544,0.1458,-0.3833,0.6708
9955.0,-0.0975,-7.2812,-0.4544,0.1458,-0.3833,0.6708
9961.0,-0.8303,-8.4872,0.3749,0.1458,-0.3833,0.6708
9965.0,-0.8303,-8.4872,0.3749,0.1458,-0.3833,0.6708
9970.0,-0.8303,-8.4872,0.3749,0.1458,-0.3833,0.6708
9975.0,-0.8303,-8.4872,0.3749,0.1458,-0.3833,0.6708
9980.0,-0.8303,-8.4872,0.3749,0.2863,-0.7712,0.9273
9986.0,-1.2469,-9.5359,0.7114,0.2863,-0.7712,0.9273
9991.0,-1.2469,-9.5359,0.7114,0.2863,-0.7712,0.9273
9996.0,-1.2469,-9.5359,0.7114,0.2863,-0.7712,0.9273
10000.0,-1.2469,-9.5359,0.7114,0.2863,-0.7712,0.9273
10005.0,-1.2469,-9.5359,0.7114,0.2863,-0.7712,0.9273
10010.0,-1.3044,-10.1937,0.8393,0.414,-0.4658,1.2682
10015.0,-1.3044,-10.1937,0.8393,0.414,-0.4658,1.2682
10020.0,-1.3044,-10.1937,0.8393,0.414,-0.4658,1.2682
10025.0,-1.3044,-10.1937,0.8393,0.414,-0.4658,1.2682
10030.0,-1.3044,-10.1937,0.8393,0.414,-0.4658,1.2682
10035.0,-0.2268,-9.8743,-0.2317,0.414,-0.4658,1.2682
10040.0,-0.2268,-9.8743,-0.2317,0.414,-0.4658,1.2682
10045.0,-0.2268,-9.8743,-0.2317,0.4561,0.7352,1.0342
10050.0,-0.2268,-9.8743,-0.2317,0.4561,0.7352,1.0342
10055.0,-0.2268,-9.8743,-0.2317,0.4561,0.7352,1.0342
10061.0,-0.2268,-9.8743,-0.2317,0.4561,0.7352,1.0342
10066.0,-0.2268,-9.8743,-0.2317,0.4561,0.7352,1.0342
10071.0,-0.2268,-9.8743,-0.2317,0.4561,0.7352,1.0342
10076.0,-0.2268,-9.8743,-0.2317,0.4561,0.7352,1.0342
10080.0,0.6783,-10.2843,-2.1084,0.2955,1.3656,0.664
10085.0,0.6783,-10.2843,-2.1084,0.2955,1.3656,0.664
10090.0,0.6783,-10.2843,-2.1084,0.2955,1.3656,0.664
10095.0,0.6783,-10.2843,-2.1084,0.2955,1.3656,0.664
10100.0,0.6783,-10.2843,-2.1084,0.2955,1.3656,0.664
10105.0,0.6783,-10.2843,-2.1084,0.2955,1.3656,0.664
10110.0,-0.8255,-12.5342,-2.9424,0.1165,-0.3424,0.5095
10115.0,-0.8255,-12.5342,-2.9424,0.1165,-0.3424,0.5095
10120.0,-0.8255,-12.5342,-2.9424,0.1165,-0.3424,0.5095
10125.0,-0.8255,-12.5342,-2.9424,0.1165,-0.3424,0.5095
10130.0,-0.8255,-12.5342,-2.9424,0.1165,-0.3424,0.5095
10135.0,-1.3906,-12.6486,-1.2553,0.1165,-0.3424,0.5095
10140.0,-1.3906,-12.6486,-1.2553,0.3492,-1.3442,1.1668
10145.0,-1.3906,-12.6486,-1.2553,0.3492,-1.3442,1.1668
10150.0,-1.3906,-12.6486,-1.2553,0.3492,-1.3442,1.1668
10155.0,-1.3906,-12.6486,-1.2553,0.3492,-1.3442,1.1668
10160.0,-0.859,-11.9097,-1.824,0.3492,-1.3442,1.1668
10165.0,-0.859,-11.9097,-1.824,0.3492,-1.3442,1.1668
10171.0,-0.859,-11.9097,-1.824,0.2619,0.3461,0.5205
10176.0,-0.859,-11.9097,-1.824,0.2619,0.3461,0.5205
10180.0,-0.859,-11.9097,-1.824,0.2619,0.3461,0.5205
10186.0,-0.859,-11.9097,-1.824,0.2619,0.3461,0.5205
10191.0,-1.8504,-13.1682,-2.4164,0.2619,0.3461,0.5205
10196.0,-1.8504,-13.1682,-2.4164,0.2619,0.3461,0.5205
10200.0,-1.8504,-13.1682,-2.4164,0.191,1.1274,-0.7055
10205.0,-1.8504,-13.1682,-2.4164,0.191,1.1274,-0.7055
10210.0,-1.8504,-13.1682,-2.4164,0.191,1.1274,-0.7055
10215.0,-1.8504,-13.1682,-2.4164,0.191,1.1274,-0.7055
10220.0,-1.5535,-14.8223,-0.6061,0.191,1.1274,-0.7055
10225.0,-1.5535,-14.8223,-0.6061,0.191,1.1274,-0.7055
10230.0,-1.5535,-14.8223,-0.6061,0.235,-0.0943,-1.2419
10235.0,-1.5535,-14.8223,-0.6061,0.235,-0.0943,-1.2419
10240.0,-1.5535,-14.8223,-0.6061,0.235,-0.0943,-1.2419
10245.0,-1.5535,-14.8223,-0.6061,0.235,-0.0943,-1.2419
10250.0,-1.6397,-13.3207,0.6024,0.235,-0.0943,-1.2419
10255.0,-1.6397,-13.3207,0.6024,0.235,-0.0943,-1.2419
10260.0,-1.6397,-13.3207,0.6024,0.235,-0.0943,-1.2419
10265.0,-1.6397,-13.3207,0.6024,0.45,-0.6075,-1.3359
10270.0,-1.6397,-13.3207,0.6024,0.45,-0.6075,-1.3359
10275.0,0.276,-10.432,0.5266,0.45,-0.6075,-1.3359
10280.0,0.276,-10.432,0.5266,0.45,-0.6075,-1.3359
10285.0,0.276,-10.432,0.5266,0.45,-0.6075,-1.3359
10290.0,0.276,-10.432,0.5266,0.45,-0.6075,-1.3359
10295.0,0.276,-10.432,0.5266,0.0707,-0.5018,-1.5296
10300.0,2.7569,-8.8685,-0.1891,0.0707,-0.5018,-1.5296
10305.0,2.7569,-8.8685,-0.1891,0.0707,-0.5018,-1.5296
10311.0,2.7569,-8.8685,-0.1891,0.0707,-0.5018,-1.5296
10315.0,2.7569,-8.8685,-0.1891,0.0707,-0.5018,-1.5296
10320.0,2.7569,-8.8685,-0.1891,0.0707,-0.5018,-1.5296
10326.0,3.1927,-10.5083,-0.6914,-1.382,1.0822,-2.6163
10330.0,3.1927,-10.5083,-0.6914,-1.382,1.0822,-2.6163
10335.0,3.1927,-10.5083,-0.6914,-1.382,1.0822,-2.6163
10340.0,3.1927,-10.5083,-0.6914,-1.382,1.0822,-2.6163
10345.0,3.1927,-10.5083,-0.6914,-1.382,1.0822,-2.6163
10350.0,3.1927,-10.5083,-0.6914,-1.382,1.0822,-2.6163
10355.0,-0.3609,-13.049,-2.9282,-1.382,1.0822,-2.6163
10360.0,-0.3609,-13.049,-2.9282,-1.1065,2.2917,-3.8509
10365.0,-0.3609,-13.049,-2.9282,-1.1065,2.2917,-3.8509
10370.0,-0.3609,-13.049,-2.9282,-1.1065,2.2917,-3.8509
10375.0,-0.3609,-13.049,-2.9282,-1.1065,2.2917,-3.8509
10380.0,-0.3609,-13.049,-2.9282,-1.1065,2.2917,-3.8509
10385.0,-2.5975,-11.5665,-6.3024,-1.1065,2.2917,-3.8509
10390.0,-2.5975,-11.5665,-6.3024,-0.3246,2.4114,-3.8246
10396.0,-2.5975,-11.5665,-6.3024,-0.3246,2.4114,-3.8246
10400.0,-2.5975,-11.5665,-6.3024,-0.3246,2.4114,-3.8246
10405.0,-2.5975,-11.5665,-6.3024,-0.3246,2.4114,-3.8246
10410.0,-0.6196,-9.4215,-4.8523,-0.3246,2.4114,-3.8246
10416.0,-0.6196,-9.4215,-4.8523,-0.3246,2.4114,-3.8246
10420.0,-0.6196,-9.4215,-4.8523,-0.5341,-2.28,-2.2015
10425.0,-0.6196,-9.4215,-4.8523,-0.5341,-2.28,-2.2015
10430.0,-0.6196,-9.4215,-4.8523,-0.5341,-2.28,-2.2015
10435.0,1.095,-7.6387,0.5171,-0.5341,-2.28,-2.2015
10440.0,1.095,-7.6387,0.5171,-0.5341,-2.28,-2.2015
10445.0,1.095,-7.6387,0.5171,-0.5341,-2.28,-2.2015
10451.0,1.095,-7.6387,0.5171,-0.6123,-3.9343,-1.2846
10455.0,1.095,-7.6387,0.5171,-0.6123,-3.9343,-1.2846
10461.0,-0.8159,-9.9506,-0.2744,-0.6123,-3.9343,-1.2846
10465.0,-0.8159,-9.9506,-0.2744,-0.6123,-3.9343,-1.2846
10470.0,-0.8159,-9.9506,-0.2744,-0.6123,-3.9343,-1.2846
10475.0,-0.8159,-9.9506,-0.2744,-0.6123,-3.9343,-1.2846
10480.0,-0.8159,-9.9506,-0.2744,-0.6123,-3.9343,-1.2846
10485.0,-0.8159,-9.9506,-0.2744,0.1073,-0.3949,-2.2816
10490.0,-0.0927,-10.5321,0.01,0.1073,-0.3949,-2.2816
10496.0,-0.0927,-10.5321,0.01,0.1073,-0.3949,-2.2816
10500.0,-0.0927,-10.5321,0.01,0.1073,-0.3949,-2.2816
10505.0,-0.0927,-10.5321,0.01,0.1073,-0.3949,-2.2816
10510.0,-0.0927,-10.5321,0.01,0.1073,-0.3949,-2.2816
10515.0,0.4389,-10.7419,-1.1084,0.4886,1.4212,-3.3799
10520.0,0.4389,-10.7419,-1.1084,0.4886,1.4212,-3.3799
10525.0,0.4389,-10.7419,-1.1084,0.4886,1.4212,-3.3799
10530.0,0.4389,-10.7419,-1.1084,0.4886,1.4212,-3.3799
10535.0,0.4389,-10.7419,-1.1084,0.4886,1.4212,-3.3799
10540.0,0.4389,-10.7419,-1.1084,0.4886,1.4212,-3.3799
10546.0,1.1956,-8.5015,-1.5728,0.3981,2.6778,-3.7299
10550.0,1.1956,-8.5015,-1.5728,0.3981,2.6778,-3.7299
10555.0,1.1956,-8.5015,-1.5728,0.3981,2.6778,-3.7299
10560.0,1.1956,-8.5015,-1.5728,0.3981,2.6778,-3.7299
10565.0,1.1956,-8.5015,-1.5728,0.3981,2.6778,-3.7299
10570.0,2.4264,-7.305,-5.7527,0.3981,2.6778,-3.7299
10575.0,2.4264,-7.305,-5.7527,0.0658,2.5037,-3.9792
10580.0,2.4264,-7.305,-5.7527,0.0658,2.5037,-3.9792
10585.0,2.4264,-7.305,-5.7527,0.0658,2.5037,-3.9792
10590.0,2.4264,-7.305,-5.7527,0.0658,2.5037,-3.9792
10595.0,2.9772,-6.5137,-5.492,0.0658,2.5037,-3.9792
10600.0,2.9772,-6.5137,-5.492,0.0658,2.5037,-3.9792
10605.0,2.9772,-6.5137,-5.492,0.0658,2.5037,-3.9792
10611.0,2.9772,-6.5137,-5.492,-0.1425,0.6967,-3.1068
10615.0,2.9772,-6.5137,-5.492,-0.1425,0.6967,-3.1068
10620.0,2.9772,-6.5137,-5.492,-0.1425,0.6967,-3.1068
10625.0,1.3344,-5.4793,-4.1651,-0.1425,0.6967,-3.1068
10630.0,1.3344,-5.4793,-4.1651,-0.1425,0.6967,-3.1068
10636.0,1.3344,-5.4793,-4.1651,-0.1425,0.6967,-3.1068
10640.0,1.3344,-5.4793,-4.1651,0.2729,-0.3564,-1.7287
10645.0,1.3344,-5.4793,-4.1651,0.2729,-0.3564,-1.7287
10650.0,0.1228,-4.1017,-4.1793,0.2729,-0.3564,-1.7287
10655.0,0.1228,-4.1017,-4.1793,0.2729,-0.3564,-1.7287
10661.0,0.1228,-4.1017,-4.1793,0.2729,-0.3564,-1.7287
10665.0,0.1228,-4.1017,-4.1793,0.2729,-0.3564,-1.7287
10670.0,0.1228,-4.1017,-4.1793,0.3487,-0.2648,-1.0354
10676.0,0.1228,-4.1017,-4.1793,0.3487,-0.2648,-1.0354
10680.0,-0.8063,-4.1256,-2.3216,0.3487,-0.2648,-1.0354
10685.0,-0.8063,-4.1256,-2.3216,0.3487,-0.2648,-1.0354
10690.0,-0.8063,-4.1256,-2.3216,0.3487,-0.2648,-1.0354
10695.0,-0.8063,-4.1256,-2.3216,0.3487,-0.2648,-1.0354
10700.0,-0.8063,-4.1256,-2.3216,0.3487,0.7028,-0.4355
10705.0,0.094,-3.0769,-2.3643,0.3487,0.7028,-0.4355
10710.0,0.094,-3.0769,-2.3643,0.3487,0.7028,-0.4355
10715.0,0.094,-3.0769,-2.3643,0.3487,0.7028,-0.4355
10720.0,0.094,-3.0769,-2.3643,0.3487,0.7028,-0.4355
10725.0,0.094,-3.0769,-2.3643,0.3487,0.7028,-0.4355
10730.0,0.094,-3.0769,-2.3643,0.3487,0.7028,-0.4355
10735.0,1.3009,-0.4599,-4.5964,0.1813,0.6839,0.6946
10740.0,1.3009,-0.4599,-4.5964,0.1813,0.6839,0.6946
10746.0,1.3009,-0.4599,-4.5964,0.1813,0.6839,0.6946
10750.0,1.3009,-0.4599,-4.5964,0.1813,0.6839,0.6946
10755.0,1.3009,-0.4599,-4.5964,0.1813,0.6839,0.6946
10760.0,1.1956,0.4792,-5.7243,0.1813,0.6839,0.6946
10765.0,1.1956,0.4792,-5.7243,0.1959,0.1842,2.1118
10770.0,1.1956,0.4792,-5.7243,0.1959,0.1842,2.1118
10776.0,1.1956,0.4792,-5.7243,0.1959,0.1842,2.1118
10780.0,1.1956,0.4792,-5.7243,0.1959,0.1842,2.1118
10785.0,1.1956,0.4792,-5.7243,0.1959,0.1842,2.1118
10790.0,-1.4098,-2.6669,-9.2549,0.1959,0.1842,2.1118
10795.0,-1.4098,-2.6669,-9.2549,0.4708,0.4334,3.0299
10800.0,-1.4098,-2.6669,-9.2549,0.4708,0.4334,3.0299
10805.0,-1.4098,-2.6669,-9.2549,0.4708,0.4334,3.0299
10810.0,-1.4098,-2.6669,-9.2549,0.4708,0.4334,3.0299
10816.0,-1.9462,-4.5832,-16.2213,0.4708,0.4334,3.0299
10821.0,-1.9462,-4.5832,-16.2213,0.4708,0.4334,3.0299
10825.0,-1.9462,-4.5832,-16.2213,0.4708,0.4334,3.0299
10830.0,-1.9462,-4.5832,-16.2213,0.3248,-0.5006,2.5095
10835.0,-1.9462,-4.5832,-16.2213,0.3248,-0.5006,2.5095
10840.0,-1.9462,-4.5832,-16.2213,0.3248,-0.5006,2.5095
10845.0,8.5758,-8.6922,-2.5633,0.3248,-0.5006,2.5095
10850.0,8.5758,-8.6922,-2.5633,0.3248,-0.5006,2.5095
10855.0,8.5758,-8.6922,-2.5633,0.3248,-0.5006,2.5095
10860.0,8.5758,-8.6922,-2.5633,-3.0233,-0.3662,2.551
10866.0,8.5758,-8.6922,-2.5633,-3.0233,-0.3662,2.551
10870.0,6.8899,-24.189,-7.8379,-3.0233,-0.3662,2.551
10875.0,6.8899,-24.189,-7.8379,-3.0233,-0.3662,2.551
10880.0,6.8899,-24.189,-7.8379,-3.0233,-0.3662,2.551
10885.0,6.8899,-24.189,-7.8379,-3.0233,-0.3662,2.551
10890.0,6.8899,-24.189,-7.8379,-3.0233,-0.3662,2.551
10895.0,6.8899,-24.189,-7.8379,-1.3105,0.3705,0.7771
10900.0,3.4752,-19.8799,-9.7714,-1.3105,0.3705,0.7771
10906.0,3.4752,-19.8799,-9.7714,-1.3105,0.3705,0.7771
10910.0,3.4752,-19.8799,-9.7714,-1.3105,0.3705,0.7771
10916.0,3.4752,-19.8799,-9.7714,-1.3105,0.3705,0.7771
10920.0,3.4752,-19.8799,-9.7714,-1.3105,0.3705,0.7771
10925.0,0.6065,-3.8681,-1.1132,0.0701,-2.3735,2.3635
10930.0,0.6065,-3.8681,-1.1132,0.0701,-2.3735,2.3635
10935.0,0.6065,-3.8681,-1.1132,0.0701,-2.3735,2.3635
10940.0,0.6065,-3.8681,-1.1132,0.0701,-2.3735,2.3635
10945.0,0.6065,-3.8681,-1.1132,0.0701,-2.3735,2.3635
10951.0,0.2473,-0.9175,-0.1132,0.0701,-2.3735,2.3635
10955.0,0.2473,-0.9175,-0.1132,-0.3099,-2.112,3.5614
10960.0,0.2473,-0.9175,-0.1132,-0.3099,-2.112,3.5614
10965.0,0.2473,-0.9175,-0.1132,-0.3099,-2.112,3.5614
10970.0,0.2473,-0.9175,-0.1132,-0.3099,-2.112,3.5614
10975.0,-0.0927,-5.2505,-2.4211,-0.3099,-2.112,3.5614
10980.0,-0.0927,-5.2505,-2.4211,-0.3099,-2.112,3.5614
10986.0,-0.0927,-5.2505,-2.4211,0.0933,-2.3961,2.8308
10990.0,-0.0927,-5.2505,-2.4211,0.0933,-2.3961,2.8308
10995.0,-0.0927,-5.2505,-2.4211,0.0933,-2.3961,2.8308
11001.0,-0.0927,-5.2505,-2.4211,0.0933,-2.3961,2.8308
11006.0,2.072,-13.4113,-0.0753,0.0933,-2.3961,2.8308
11010.0,2.072,-13.4113,-0.0753,0.0933,-2.3961,2.8308
11015.0,2.072,-13.4113,-0.0753,0.0933,-2.3961,2.8308
11020.0,2.072,-13.4113,-0.0753,0.0328,-1.2061,2.2511
11025.0,2.072,-13.4113,-0.0753,0.0328,-1.2061,2.2511
11031.0,1.708,-15.871,0.3323,0.0328,-1.2061,2.2511
11035.0,1.708,-15.871,0.3323,0.0328,-1.2061,2.2511
11041.0,1.708,-15.871,0.3323,0.0328,-1.2061,2.2511
