time in milliseconds,acceleration_x,acceleration_y,acceleration_z,Roll,Pitch,Yaw
6.0,-7.5352,0.7557,5.0713,0.1252,-0.1108,0.1277
11.0,-7.5352,0.7557,5.0713,0.1252,-0.1108,0.1277
16.0,-7.5352,0.7557,5.0713,-0.1784,-0.9507,-0.2547
21.0,-7.5352,0.7557,5.0713,-0.1784,-0.9507,-0.2547
26.0,-7.5352,0.7557,5.0713,-0.1784,-0.9507,-0.2547
31.0,-6.9844,0.8176,6.2892,-0.1784,-0.9507,-0.2547
36.0,-6.9844,0.8176,6.2892,-0.1784,-0.9507,-0.2547
41.0,-6.9844,0.8176,6.2892,-0.1784,-0.9507,-0.2547
46.0,-6.9844,0.8176,6.2892,-0.1784,-0.9507,-0.2547
52.0,-6.9844,0.8176,6.2892,-0.5285,-0.9886,-0.5907
56.0,-6.745,-0.2692,7.6351,-0.5285,-0.9886,-0.5907
61.0,-6.745,-0.2692,7.6351,-0.5285,-0.9886,-0.5907
66.0,-6.745,-0.2692,7.6351,-0.5285,-0.9886,-0.5907
71.0,-6.745,-0.2692,7.6351,-0.5285,-0.9886,-0.5907
76.0,-6.745,-0.2692,7.6351,-0.5285,-0.9886,-0.5907
81.0,-6.8647,-0.6219,7.6399,-0.3513,-0.8909,-0.2101
86.0,-6.8647,-0.6219,7.6399,-0.3513,-0.8909,-0.2101
91.0,-6.8647,-0.6219,7.6399,-0.3513,-0.8909,-0.2101
96.0,-6.8647,-0.6219,7.6399,-0.3513,-0.8909,-0.2101
101.0,-6.8647,-0.6219,7.6399,-0.3513,-0.8909,-0.2101
106.0,-6.8647,-0.6219,7.6399,-0.3513,-0.8909,-0.2101
112.0,-6.1607,0.3457,7.5972,-0.055,-1.1212,0.2871
116.0,-6.1607,0.3457,7.5972,-0.055,-1.1212,0.2871
121.0,-6.1607,0.3457,7.5972,-0.055,-1.1212,0.2871
126.0,-6.1607,0.3457,7.5972,-0.055,-1.1212,0.2871
131.0,-6.1607,0.3457,7.5972,-0.055,-1.1212,0.2871
136.0,-5.8015,0.7604,6.3271,-0.055,-1.1212,0.2871
141.0,-5.8015,0.7604,6.3271,-0.2047,-1.6117,0.3445
146.0,-5.8015,0.7604,6.3271,-0.2047,-1.6117,0.3445
151.0,-5.8015,0.7604,6.3271,-0.2047,-1.6117,0.3445
156.0,-5.8015,0.7604,6.3271,-0.2047,-1.6117,0.3445
161.0,-5.8015,0.7604,6.3271,-0.2047,-1.6117,0.3445
166.0,-6.5869,1.4135,5.9575,-0.2047,-1.6117,0.3445
171.0,-6.5869,1.4135,5.9575,-0.2047,-1.6117,0.3445
176.0,-6.5869,1.4135,5.9575,-0.3562,-2.7088,0.1093
181.0,-6.5869,1.4135,5.9575,-0.3562,-2.7088,0.1093
186.0,-6.5869,1.4135,5.9575,-0.3562,-2.7088,0.1093
191.0,-5.5525,1.0274,4.7822,-0.3562,-2.7088,0.1093
196.0,-5.5525,1.0274,4.7822,-0.3562,-2.7088,0.1093
201.0,-5.5525,1.0274,4.7822,-0.3562,-2.7088,0.1093
206.0,-5.5525,1.0274,4.7822,-0.3562,-2.7088,0.1093
211.0,-5.5525,1.0274,4.7822,-0.5798,-3.5952,0.4398
216.0,-5.6195,1.2562,5.1945,-0.5798,-3.5952,0.4398
221.0,-5.6195,1.2562,5.1945,-0.5798,-3.5952,0.4398
226.0,-5.6195,1.2562,5.1945,-0.5798,-3.5952,0.4398
231.0,-5.6195,1.2562,5.1945,-0.5798,-3.5952,0.4398
236.0,-5.6195,1.2562,5.1945,-0.5798,-3.5952,0.4398
241.0,-5.6195,1.2562,5.1945,-0.3452,-3.1621,0.7612
246.0,-4.1684,1.1561,4.4837,-0.3452,-3.1621,0.7612
252.0,-4.1684,1.1561,4.4837,-0.3452,-3.1621,0.7612
256.0,-4.1684,1.1561,4.4837,-0.3452,-3.1621,0.7612
261.0,-4.1684,1.1561,4.4837,-0.3452,-3.1621,0.7612
266.0,-4.1684,1.1561,4.4837,-0.3452,-3.1621,0.7612
272.0,-2.5975,0.1264,13.0282,-0.3452,-3.1621,0.7612
276.0,-2.5975,0.1264,13.0282,-0.6604,-2.7565,2.4166
281.0,-2.5975,0.1264,13.0282,-0.6604,-2.7565,2.4166
286.0,-2.5975,0.1264,13.0282,-0.6604,-2.7565,2.4166
291.0,-2.5975,0.1264,13.0282,-0.6604,-2.7565,2.4166
296.0,-1.8647,-1.0128,3.1709,-0.6604,-2.7565,2.4166
301.0,-1.8647,-1.0128,3.1709,-0.6604,-2.7565,2.4166
306.0,-1.8647,-1.0128,3.1709,-0.0721,2.9252,-1.2834
311.0,-1.8647,-1.0128,3.1709,-0.0721,2.9252,-1.2834
316.0,-1.8647,-1.0128,3.1709,-0.0721,2.9252,-1.2834
321.0,-1.8647,-1.0128,3.1709,-0.0721,2.9252,-1.2834
326.0,-6.108,-1.0319,6.9764,-0.0721,2.9252,-1.2834
331.0,-6.108,-1.0319,6.9764,-0.0721,2.9252,-1.2834
336.0,-6.108,-1.0319,6.9764,0.1832,0.8379,-1.3079
341.0,-6.108,-1.0319,6.9764,0.1832,0.8379,-1.3079
346.0,-6.108,-1.0319,6.9764,0.1832,0.8379,-1.3079
351.0,-3.3494,-1.0081,7.4077,0.1832,0.8379,-1.3079
356.0,-3.3494,-1.0081,7.4077,0.1832,0.8379,-1.3079
361.0,-3.3494,-1.0081,7.4077,0.1832,0.8379,-1.3079
367.0,-3.3494,-1.0081,7.4077,-1.2102,0.9289,-0.5669
371.0,-3.3494,-1.0081,7.4077,-1.2102,0.9289,-0.5669
376.0,-3.3494,-1.0081,7.4077,-1.2102,0.9289,-0.5669
381.0,0.1228,-1.8804,6.6778,-1.2102,0.9289,-0.5669
386.0,0.1228,-1.8804,6.6778,-1.2102,0.9289,-0.5669
391.0,0.1228,-1.8804,6.6778,-1.2102,0.9289,-0.5669
396.0,0.1228,-1.8804,6.6778,-2.223,2.9594,-0.5834
401.0,0.1228,-1.8804,6.6778,-2.223,2.9594,-0.5834
406.0,-0.8494,-3.2723,5.0808,-2.223,2.9594,-0.5834
411.0,-0.8494,-3.2723,5.0808,-2.223,2.9594,-0.5834
416.0,-0.8494,-3.2723,5.0808,-2.223,2.9594,-0.5834
421.0,-0.8494,-3.2723,5.0808,-2.223,2.9594,-0.5834
426.0,-0.8494,-3.2723,5.0808,-2.223,2.9594,-0.5834
431.0,-0.7345,-3.1913,3.5453,-1.8858,4.8446,-0.2107
436.0,-0.7345,-3.1913,3.5453,-1.8858,4.8446,-0.2107
441.0,-0.7345,-3.1913,3.5453,-1.8858,4.8446,-0.2107
446.0,-0.7345,-3.1913,3.5453,-1.8858,4.8446,-0.2107
451.0,-0.7345,-3.1913,3.5453,-1.8858,4.8446,-0.2107
456.0,-0.7345,-3.1913,3.5453,-1.8858,4.8446,-0.2107
461.0,0.6927,-3.5535,1.4459,-2.8363,6.2209,0.2419
466.0,0.6927,-3.5535,1.4459,-2.8363,6.2209,0.2419
471.0,0.6927,-3.5535,1.4459,-2.8363,6.2209,0.2419
476.0,0.6927,-3.5535,1.4459,-2.8363,6.2209,0.2419
481.0,0.6927,-3.5535,1.4459,-2.8363,6.2209,0.2419
487.0,1.3728,-6.0513,0.1759,-2.8363,6.2209,0.2419
491.0,1.3728,-6.0513,0.1759,-4.9053,6.4683,-0.1295
496.0,1.3728,-6.0513,0.1759,-4.9053,6.4683,-0.1295
502.0,1.3728,-6.0513,0.1759,-4.9053,6.4683,-0.1295
507.0,1.3728,-6.0513,0.1759,-4.9053,6.4683,-0.1295
511.0,1.3728,-6.0513,0.1759,-4.9053,6.4683,-0.1295
516.0,1.3728,-6.0513,0.1759,-4.9053,6.4683,-0.1295
521.0,1.3728,-6.0513,0.1759,-4.9053,6.4683,-0.1295
526.0,1.3728,-6.0513,0.1759,-4.9053,6.4683,-0.1295
531.0,1.3728,-6.0513,0.1759,-4.9053,6.4683,-0.1295
536.0,1.3728,-6.0513,0.1759,-4.9053,6.4683,-0.1295
541.0,-0.8303,-8.1678,-0.1891,-5.493,6.4719,-0.7465
546.0,-0.8303,-8.1678,-0.1891,-5.493,6.4719,-0.7465
551.0,-0.8303,-8.1678,-0.1891,-5.493,6.4719,-0.7465
556.0,-0.8303,-8.1678,-0.1891,-5.493,6.4719,-0.7465
561.0,-0.8303,-8.1678,-0.1891,-5.493,6.4719,-0.7465
566.0,-0.8303,-8.1678,-0.1891,-5.493,6.4719,-0.7465
571.0,-0.8303,-8.1678,-0.1891,-5.493,6.4719,-0.7465
578.0,-0.8303,-8.1678,-0.1891,-5.493,6.4719,-0.7465
581.0,-0.8303,-8.1678,-0.1891,-5.493,6.4719,-0.7465
588.0,-0.8303,-8.1678,-0.1891,-5.493,6.4719,-0.7465
596.0,-0.8303,-8.1678,-0.1891,-5.493,6.4719,-0.7465
596.0,-0.8303,-8.1678,-0.1891,-5.493,6.4719,-0.7465
602.0,-0.8303,-8.1678,-0.1891,-5.493,6.4719,-0.7465
606.0,-0.8303,-8.1678,-0.1891,-5.493,6.4719,-0.7465
611.0,-0.8303,-8.1678,-0.1891,-5.493,6.4719,-0.7465
616.0,-6.8072,-15.094,3.0004,-6.9426,4.979,-1.3769
623.0,-6.8072,-15.094,3.0004,-6.9426,4.979,-1.3769
626.0,-6.8072,-15.094,3.0004,-6.9426,4.979,-1.3769
631.0,-6.8072,-15.094,3.0004,-6.9426,4.979,-1.3769
636.0,-6.8072,-15.094,3.0004,-6.9426,4.979,-1.3769
642.0,-17.2621,-17.6109,2.6733,-6.9426,4.979,-1.3769
646.0,-17.2621,-17.6109,2.6733,-3.9316,1.1983,1.496
651.0,-17.2621,-17.6109,2.6733,-3.9316,1.1983,1.496
656.0,-17.2621,-17.6109,2.6733,-3.9316,1.1983,1.496
661.0,-17.2621,-17.6109,2.6733,-3.9316,1.1983,1.496
666.0,-17.2621,-17.6109,2.6733,-3.9316,1.1983,1.496
672.0,-18.3349,-14.5029,-0.1227,-3.9316,1.1983,1.496
676.0,-18.3349,-14.5029,-0.1227,-2.6915,-0.9807,1.7776
681.0,-18.3349,-14.5029,-0.1227,-2.6915,-0.9807,1.7776
686.0,-18.3349,-14.5029,-0.1227,-2.6915,-0.9807,1.7776
691.0,-18.3349,-14.5029,-0.1227,-2.6915,-0.9807,1.7776
696.0,-18.0475,-11.9574,-0.0848,-2.6915,-0.9807,1.7776
701.0,-18.0475,-11.9574,-0.0848,-2.6915,-0.9807,1.7776
706.0,-18.0475,-11.9574,-0.0848,-1.2859,-2.0192,1.4527
711.0,-18.0475,-11.9574,-0.0848,-1.2859,-2.0192,1.4527
717.0,-18.0475,-11.9574,-0.0848,-1.2859,-2.0192,1.4527
721.0,-18.0475,-11.9574,-0.0848,-1.2859,-2.0192,1.4527
726.0,-18.0475,-11.9574,-0.0848,-1.2859,-2.0192,1.4527
731.0,-18.0475,-11.9574,-0.0848,-1.2859,-2.0192,1.4527
736.0,-18.0475,-11.9574,-0.0848,-1.2859,-2.0192,1.4527
741.0,-18.0475,-11.9574,-0.0848,-1.2859,-2.0192,1.4527
746.0,-18.0475,-11.9574,-0.0848,-1.2859,-2.0192,1.4527
751.0,-17.2477,-9.0449,-3.132,-0.4179,-2.7473,1.1594
756.0,-17.2477,-9.0449,-3.132,-0.4179,-2.7473,1.1594
761.0,-17.2477,-9.0449,-3.132,-0.4179,-2.7473,1.1594
766.0,-17.2477,-9.0449,-3.132,-0.4179,-2.7473,1.1594
772.0,-17.2477,-9.0449,-3.132,-0.4179,-2.7473,1.1594
776.0,-8.1817,-8.6731,0.9246,-0.4179,-2.7473,1.1594
781.0,-8.1817,-8.6731,0.9246,-0.4179,-2.7473,1.1594
786.0,-8.1817,-8.6731,0.9246,0.097,-2.6813,-0.7813
791.0,-8.1817,-8.6731,0.9246,0.097,-2.6813,-0.7813
796.0,-8.1817,-8.6731,0.9246,0.097,-2.6813,-0.7813
801.0,-8.1817,-8.6731,0.9246,0.097,-2.6813,-0.7813
806.0,-4.3791,-6.4422,-0.3596,0.097,-2.6813,-0.7813
811.0,-4.3791,-6.4422,-0.3596,0.097,-2.6813,-0.7813
816.0,-4.3791,-6.4422,-0.3596,-0.1656,-0.7095,-1.19
821.0,-4.3791,-6.4422,-0.3596,-0.1656,-0.7095,-1.19
826.0,-4.3791,-6.4422,-0.3596,-0.1656,-0.7095,-1.19
831.0,-3.7804,-6.1038,3.3889,-0.1656,-0.7095,-1.19
836.0,-3.7804,-6.1038,3.3889,-0.1656,-0.7095,-1.19
841.0,-3.7804,-6.1038,3.3889,-0.1656,-0.7095,-1.19
846.0,-3.7804,-6.1038,3.3889,0.2125,3.2704,-1.7141
851.0,-3.7804,-6.1038,3.3889,0.2125,3.2704,-1.7141
856.0,-3.7804,-6.1038,3.3889,0.2125,3.2704,-1.7141
861.0,1.981,-8.1344,-2.3406,0.2125,3.2704,-1.7141
866.0,1.981,-8.1344,-2.3406,0.2125,3.2704,-1.7141
871.0,1.981,-8.1344,-2.3406,0.2125,3.2704,-1.7141
876.0,1.981,-8.1344,-2.3406,-0.2041,3.0614,-1.6451
881.0,1.981,-8.1344,-2.3406,-0.2041,3.0614,-1.6451
887.0,1.981,-8.1344,-2.3406,-0.2041,3.0614,-1.6451
891.0,1.981,-8.1344,-2.3406,-0.2041,3.0614,-1.6451
896.0,-0.6866,-10.146,-0.9094,-0.2041,3.0614,-1.6451
901.0,-0.6866,-10.146,-0.9094,-0.2041,3.0614,-1.6451
906.0,-0.6866,-10.146,-0.9094,0.0897,2.8696,-0.1356
911.0,-0.6866,-10.146,-0.9094,0.0897,2.8696,-0.1356
917.0,-0.6866,-10.146,-0.9094,0.0897,2.8696,-0.1356
921.0,-1.2326,-9.9935,1.3132,0.0897,2.8696,-0.1356
926.0,-1.2326,-9.9935,1.3132,0.0897,2.8696,-0.1356
931.0,-1.2326,-9.9935,1.3132,0.0897,2.8696,-0.1356
936.0,-1.2326,-9.9935,1.3132,1.0964,4.1726,1.0177
941.0,-1.2326,-9.9935,1.3132,1.0964,4.1726,1.0177
946.0,-5.8063,-9.8505,0.4697,1.0964,4.1726,1.0177
951.0,-5.8063,-9.8505,0.4697,1.0964,4.1726,1.0177
956.0,-5.8063,-9.8505,0.4697,1.0964,4.1726,1.0177
962.0,-5.8063,-9.8505,0.4697,1.0964,4.1726,1.0177
966.0,-5.8063,-9.8505,0.4697,1.6982,3.9454,1.2511
972.0,-7.0946,-10.8277,0.6592,1.6982,3.9454,1.2511
977.0,-7.0946,-10.8277,0.6592,1.6982,3.9454,1.2511
981.0,-7.0946,-10.8277,0.6592,1.6982,3.9454,1.2511
987.0,-7.0946,-10.8277,0.6592,1.6982,3.9454,1.2511
991.0,-7.0946,-10.8277,0.6592,1.6982,3.9454,1.2511
996.0,-7.0946,-10.8277,0.6592,0.4202,2.668,1.5034
1001.0,-5.7871,-11.5379,0.9815,0.4202,2.668,1.5034
1006.0,-5.7871,-11.5379,0.9815,0.4202,2.668,1.5034
1011.0,-5.7871,-11.5379,0.9815,0.4202,2.668,1.5034
1016.0,-5.7871,-11.5379,0.9815,0.4202,2.668,1.5034
1021.0,-5.7871,-11.5379,0.9815,0.4202,2.668,1.5034
1032.0,-5.7871,-11.5379,0.9815,0.4202,2.668,1.5034
1032.0,-5.7871,-11.5379,0.9815,0.4202,2.668,1.5034
1037.0,-5.7871,-11.5379,0.9815,0.4202,2.668,1.5034
1041.0,-5.7871,-11.5379,0.9815,0.4202,2.668,1.5034
1047.0,-5.7871,-11.5379,0.9815,0.4202,2.668,1.5034
1054.0,-5.7871,-11.5379,0.9815,0.4202,2.668,1.5034
1056.0,-5.7871,-11.5379,0.9815,0.4202,2.668,1.5034
1061.0,-5.7871,-11.5379,0.9815,0.4202,2.668,1.5034
1067.0,-5.7871,-11.5379,0.9815,0.4202,2.668,1.5034
1071.0,-3.9241,-9.2594,4.4315,0.1783,4.1347,1.9084
1076.0,-3.9241,-9.2594,4.4315,0.1783,4.1347,1.9084
1082.0,-3.9241,-9.2594,4.4315,0.1783,4.1347,1.9084
1086.0,-3.9241,-9.2594,4.4315,0.1783,4.1347,1.9084
1091.0,-3.9241,-9.2594,4.4315,0.1783,4.1347,1.9084
1096.0,-3.9241,-9.2594,4.4315,0.1783,4.1347,1.9084
1101.0,-3.9241,-9.2594,4.4315,0.1783,4.1347,1.9084
1106.0,3.3315,-13.6353,-1.0942,1.5943,-2.5054,1.5314
1111.0,3.3315,-13.6353,-1.0942,1.5943,-2.5054,1.5314
1116.0,3.3315,-13.6353,-1.0942,1.5943,-2.5054,1.5314
1121.0,3.3315,-13.6353,-1.0942,1.5943,-2.5054,1.5314
1126.0,3.3315,-13.6353,-1.0942,1.5943,-2.5054,1.5314
1131.0,3.3315,-13.6353,-1.0942,1.5943,-2.5054,1.5314
1138.0,2.0911,-6.0704,3.0951,1.0494,1.4432,2.2889
1141.0,2.0911,-6.0704,3.0951,1.0494,1.4432,2.2889
1146.0,2.0911,-6.0704,3.0951,1.0494,1.4432,2.2889
1151.0,2.0911,-6.0704,3.0951,1.0494,1.4432,2.2889
1156.0,2.0911,-6.0704,3.0951,1.0494,1.4432,2.2889
1161.0,4.1553,-4.812,0.5692,1.0494,1.4432,2.2889
1166.0,4.1553,-4.812,0.5692,1.0494,1.4432,2.2889
1173.0,4.1553,-4.812,0.5692,1.9718,1.7407,-1.3231
1176.0,4.1553,-4.812,0.5692,1.9718,1.7407,-1.3231
1181.0,4.1553,-4.812,0.5692,1.9718,1.7407,-1.3231
1187.0,3.4992,-3.9873,-8.4445,1.9718,1.7407,-1.3231
1191.0,3.4992,-3.9873,-8.4445,1.9718,1.7407,-1.3231
1196.0,3.4992,-3.9873,-8.4445,1.9718,1.7407,-1.3231
1201.0,3.4992,-3.9873,-8.4445,2.3854,-2.2556,-2.9419
1206.0,3.4992,-3.9873,-8.4445,2.3854,-2.2556,-2.9419
1212.0,3.4992,-3.9873,-8.4445,2.3854,-2.2556,-2.9419
1216.0,-0.7057,-7.9152,-2.786,2.3854,-2.2556,-2.9419
1221.0,-0.7057,-7.9152,-2.786,2.3854,-2.2556,-2.9419
1226.0,-0.7057,-7.9152,-2.786,2.3854,-2.2556,-2.9419
1231.0,-0.7057,-7.9152,-2.786,2.3854,-2.2556,-2.9419
1236.0,-0.7057,-7.9152,-2.786,2.5552,-2.0711,-2.3854
1241.0,-5.2364,-10.2128,-0.3928,2.5552,-2.0711,-2.3854
1246.0,-5.2364,-10.2128,-0.3928,2.5552,-2.0711,-2.3854
1251.0,-5.2364,-10.2128,-0.3928,2.5552,-2.0711,-2.3854
1256.0,-5.2364,-10.2128,-0.3928,2.5552,-2.0711,-2.3854
1261.0,-5.2364,-10.2128,-0.3928,2.5552,-2.0711,-2.3854
1266.0,-5.2364,-10.2128,-0.3928,1.7208,-2.8072,-1.6151
1271.0,-3.9097,-7.8484,2.6307,1.7208,-2.8072,-1.6151
1276.0,-3.9097,-7.8484,2.6307,1.7208,-2.8072,-1.6151
1281.0,-3.9097,-7.8484,2.6307,1.7208,-2.8072,-1.6151
1286.0,-3.9097,-7.8484,2.6307,1.7208,-2.8072,-1.6151
1291.0,-3.9097,-7.8484,2.6307,1.7208,-2.8072,-1.6151
1296.0,-3.9097,-7.8484,2.6307,0.295,-0.8115,-0.7703
1301.0,-4.3408,-6.6281,5.8769,0.295,-0.8115,-0.7703
1306.0,-4.3408,-6.6281,5.8769,0.295,-0.8115,-0.7703
1311.0,-4.3408,-6.6281,5.8769,0.295,-0.8115,-0.7703
1316.0,-4.3408,-6.6281,5.8769,0.295,-0.8115,-0.7703
1321.0,-4.3408,-6.6281,5.8769,0.295,-0.8115,-0.7703
1326.0,-5.3753,-5.4364,3.024,-1.4582,-0.4004,-0.0458
1331.0,-5.3753,-5.4364,3.024,-1.4582,-0.4004,-0.0458
1337.0,-5.3753,-5.4364,3.024,-1.4582,-0.4004,-0.0458
1341.0,-5.3753,-5.4364,3.024,-1.4582,-0.4004,-0.0458
1346.0,-5.3753,-5.4364,3.024,-1.4582,-0.4004,-0.0458
1351.0,-5.5716,-5.1361,2.9956,-1.4582,-0.4004,-0.0458
1356.0,-5.5716,-5.1361,2.9956,-1.4582,-0.4004,-0.0458
1361.0,-5.5716,-5.1361,2.9956,-3.7758,0.1653,0.5742
1366.0,-5.5716,-5.1361,2.9956,-3.7758,0.1653,0.5742
1371.0,-5.5716,-5.1361,2.9956,-3.7758,0.1653,0.5742
1376.0,-5.5716,-5.1361,2.9956,-3.7758,0.1653,0.5742
1381.0,-5.7249,-6.0275,1.7777,-3.7758,0.1653,0.5742
1386.0,-5.7249,-6.0275,1.7777,-5.964,1.3089,0.7318
1391.0,-5.7249,-6.0275,1.7777,-5.964,1.3089,0.7318
1396.0,-5.7249,-6.0275,1.7777,-5.964,1.3089,0.7318
1401.0,-5.7249,-6.0275,1.7777,-5.964,1.3089,0.7318
1407.0,-4.2019,-5.7272,-3.5917,-5.964,1.3089,0.7318
1411.0,-4.2019,-5.7272,-3.5917,-5.964,1.3089,0.7318
1416.0,-4.2019,-5.7272,-3.5917,-5.964,1.3089,0.7318
1421.0,-4.2019,-5.7272,-3.5917,-6.1723,1.7621,-2.0806
1426.0,-4.2019,-5.7272,-3.5917,-6.1723,1.7621,-2.0806
1431.0,-4.2019,-5.7272,-3.5917,-6.1723,1.7621,-2.0806
1436.0,-0.8877,-3.3867,0.1427,-6.1723,1.7621,-2.0806
1441.0,-0.8877,-3.3867,0.1427,-6.1723,1.7621,-2.0806
1446.0,-0.8877,-3.3867,0.1427,-6.1723,1.7621,-2.0806
1451.0,-0.8877,-3.3867,0.1427,-6.2217,1.5294,-0.9994
1456.0,-0.8877,-3.3867,0.1427,-6.2217,1.5294,-0.9994
1461.0,-0.9835,-6.8998,-1.0847,-6.2217,1.5294,-0.9994
1466.0,-0.9835,-6.8998,-1.0847,-6.2217,1.5294,-0.9994
1471.0,-0.9835,-6.8998,-1.0847,-6.2217,1.5294,-0.9994
1477.0,-0.9835,-6.8998,-1.0847,-6.2217,1.5294,-0.9994
1481.0,-0.9835,-6.8998,-1.0847,-5.4557,1.1861,1.0757
1486.0,0.7645,-15.2513,-8.672,-5.4557,1.1861,1.0757
1491.0,0.7645,-15.2513,-8.672,-5.4557,1.1861,1.0757
1496.0,0.7645,-15.2513,-8.672,-5.4557,1.1861,1.0757
1501.0,0.7645,-15.2513,-8.672,-5.4557,1.1861,1.0757
1508.0,0.7645,-15.2513,-8.672,-5.4557,1.1861,1.0757
1511.0,0.7645,-15.2513,-8.672,-6.901,2.0645,-0.0568
1516.0,4.5432,-23.2643,0.5171,-6.901,2.0645,-0.0568
1521.0,4.5432,-23.2643,0.5171,-6.901,2.0645,-0.0568
1526.0,4.5432,-23.2643,0.5171,-6.901,2.0645,-0.0568
1531.0,4.5432,-23.2643,0.5171,-6.901,2.0645,-0.0568
1536.0,4.5432,-23.2643,0.5171,-6.901,2.0645,-0.0568
1541.0,7.7568,-24.6895,2.408,-6.901,2.0645,-0.0568
1546.0,7.7568,-24.6895,2.408,-3.0428,3.1268,-1.3506
1551.0,7.7568,-24.6895,2.408,-3.0428,3.1268,-1.3506
1556.0,7.7568,-24.6895,2.408,-3.0428,3.1268,-1.3506
1561.0,7.7568,-24.6895,2.408,-3.0428,3.1268,-1.3506
1566.0,7.7568,-24.6895,2.408,-3.0428,3.1268,-1.3506
1571.0,8.7865,-14.8604,0.4555,-3.0428,3.1268,-1.3506
1576.0,8.7865,-14.8604,0.4555,1.758,1.0278,-1.3518
1582.0,8.7865,-14.8604,0.4555,1.758,1.0278,-1.3518
1586.0,8.7865,-14.8604,0.4555,1.758,1.0278,-1.3518
1591.0,8.7865,-14.8604,0.4555,1.758,1.0278,-1.3518
1597.0,6.7319,-4.4735,0.0811,1.758,1.0278,-1.3518
1601.0,6.7319,-4.4735,0.0811,1.758,1.0278,-1.3518
1606.0,6.7319,-4.4735,0.0811,1.3652,-2.1682,-0.1032
1611.0,6.7319,-4.4735,0.0811,1.3652,-2.1682,-0.1032
1616.0,6.7319,-4.4735,0.0811,1.3652,-2.1682,-0.1032
1622.0,7.3401,-2.0043,4.242,1.3652,-2.1682,-0.1032
1626.0,7.3401,-2.0043,4.242,1.3652,-2.1682,-0.1032
1631.0,7.3401,-2.0043,4.242,1.3652,-2.1682,-0.1032
1636.0,7.3401,-2.0043,4.242,0.3879,2.4823,1.5253
1641.0,7.3401,-2.0043,4.242,0.3879,2.4823,1.5253
1646.0,7.3401,-2.0043,4.242,0.3879,2.4823,1.5253
1651.0,7.6706,-5.4698,-1.5065,0.3879,2.4823,1.5253
1657.0,7.6706,-5.4698,-1.5065,0.3879,2.4823,1.5253
1661.0,7.6706,-5.4698,-1.5065,0.3879,2.4823,1.5253
1666.0,7.6706,-5.4698,-1.5065,-0.3061,1.9686,0.9615
1672.0,7.6706,-5.4698,-1.5065,-0.3061,1.9686,0.9615
1676.0,5.2616,-10.1651,-3.9756,-0.3061,1.9686,0.9615
1681.0,5.2616,-10.1651,-3.9756,-0.3061,1.9686,0.9615
1687.0,5.2616,-10.1651,-3.9756,-0.3061,1.9686,0.9615
1691.0,5.2616,-10.1651,-3.9756,-0.3061,1.9686,0.9615
1696.0,5.2616,-10.1651,-3.9756,0.2089,-0.4883,-0.5082
1702.0,5.2616,-10.1651,-3.9756,0.2089,-0.4883,-0.5082
1706.0,5.4053,-8.9543,-1.4307,0.2089,-0.4883,-0.5082
1711.0,5.4053,-8.9543,-1.4307,0.2089,-0.4883,-0.5082
1717.0,5.4053,-8.9543,-1.4307,0.2089,-0.4883,-0.5082
1721.0,5.4053,-8.9543,-1.4307,0.2089,-0.4883,-0.5082
1726.0,5.4053,-8.9543,-1.4307,-0.2206,-1.9349,-0.54
1731.0,4.0739,-8.5062,2.3748,-0.2206,-1.9349,-0.54
1736.0,4.0739,-8.5062,2.3748,-0.2206,-1.9349,-0.54
1741.0,4.0739,-8.5062,2.3748,-0.2206,-1.9349,-0.54
1746.0,4.0739,-8.5062,2.3748,-0.2206,-1.9349,-0.54
1751.0,4.0739,-8.5062,2.3748,-0.2206,-1.9349,-0.54
1756.0,4.0739,-8.5062,2.3748,-0.2206,-1.9349,-0.54
1761.0,4.0499,-9.431,1.3843,0.0397,0.2685,0.2957
1766.0,4.0499,-9.431,1.3843,0.0397,0.2685,0.2957
1771.0,4.0499,-9.431,1.3843,0.0397,0.2685,0.2957
1777.0,4.0499,-9.431,1.3843,0.0397,0.2685,0.2957
1781.0,4.0499,-9.431,1.3843,0.0397,0.2685,0.2957
1786.0,4.8018,-8.5062,0.7967,0.0397,0.2685,0.2957
1791.0,4.8018,-8.5062,0.7967,0.2895,-0.225,0.2242
1796.0,4.8018,-8.5062,0.7967,0.2895,-0.225,0.2242
1801.0,4.8018,-8.5062,0.7967,0.2895,-0.225,0.2242
1806.0,4.8018,-8.5062,0.7967,0.2895,-0.225,0.2242
1811.0,4.4427,-8.1869,0.8914,0.2895,-0.225,0.2242
1816.0,4.4427,-8.1869,0.8914,0.2895,-0.225,0.2242
1821.0,4.4427,-8.1869,0.8914,0.2895,-0.225,0.2242
1826.0,4.4427,-8.1869,0.8914,0.1545,-0.5653,0.2413
1832.0,4.4427,-8.1869,0.8914,0.1545,-0.5653,0.2413
1836.0,4.6007,-8.1964,1.2706,0.1545,-0.5653,0.2413
1841.0,4.6007,-8.1964,1.2706,0.1545,-0.5653,0.2413
1846.0,4.6007,-8.1964,1.2706,0.1545,-0.5653,0.2413
1851.0,4.6007,-8.1964,1.2706,0.1545,-0.5653,0.2413
1856.0,4.6007,-8.1964,1.2706,0.1209,-0.2415,0.4979
1861.0,4.6007,-8.1964,1.2706,0.1209,-0.2415,0.4979
1866.0,4.639,-8.6397,0.8583,0.1209,-0.2415,0.4979
1871.0,4.639,-8.6397,0.8583,0.1209,-0.2415,0.4979
1876.0,4.639,-8.6397,0.8583,0.1209,-0.2415,0.4979
1882.0,4.639,-8.6397,0.8583,0.1209,-0.2415,0.4979
1886.0,4.639,-8.6397,0.8583,0.0329,-0.3564,0.2694
1891.0,4.117,-9.0258,0.9673,0.0329,-0.3564,0.2694
1896.0,4.117,-9.0258,0.9673,0.0329,-0.3564,0.2694
1901.0,4.117,-9.0258,0.9673,0.0329,-0.3564,0.2694
1906.0,4.117,-9.0258,0.9673,0.0329,-0.3564,0.2694
1911.0,4.117,-9.0258,0.9673,0.0329,-0.3564,0.2694
1916.0,4.117,-9.0258,0.9673,-0.0819,-0.3558,-0.0311
1922.0,3.6716,-8.9972,1.2421,-0.0819,-0.3558,-0.0311
1926.0,3.6716,-8.9972,1.2421,-0.0819,-0.3558,-0.0311
1932.0,3.6716,-8.9972,1.2421,-0.0819,-0.3558,-0.0311
1937.0,3.6716,-8.9972,1.2421,-0.0819,-0.3558,-0.0311
1941.0,3.6716,-8.9972,1.2421,-0.0819,-0.3558,-0.0311
1946.0,3.4225,-9.3023,1.2895,-0.1436,-0.1016,-0.204
1951.0,3.4225,-9.3023,1.2895,-0.1436,-0.1016,-0.204
1956.0,3.4225,-9.3023,1.2895,-0.1436,-0.1016,-0.204
1961.0,3.4225,-9.3023,1.2895,-0.1436,-0.1016,-0.204
1966.0,3.4225,-9.3023,1.2895,-0.1436,-0.1016,-0.204
1971.0,3.4225,-9.3023,1.2895,-0.1436,-0.1016,-0.204
1976.0,3.1448,-9.779,1.3891,-0.1436,-0.1016,-0.204
1981.0,3.1448,-9.779,1.3891,-0.1925,0.2911,-0.2175
1988.0,3.1448,-9.779,1.3891,-0.1925,0.2911,-0.2175
1991.0,3.1448,-9.779,1.3891,-0.1925,0.2911,-0.2175
1996.0,3.1448,-9.779,1.3891,-0.1925,0.2911,-0.2175
2002.0,3.1448,-9.779,1.3891,-0.1925,0.2911,-0.2175
2006.0,3.1448,-9.779,1.3891,-0.1925,0.2911,-0.2175
2012.0,2.7712,-9.8457,1.3512,-0.1803,0.6778,-0.1161
2017.0,2.7712,-9.8457,1.3512,-0.1803,0.6778,-0.1161
2021.0,2.7712,-9.8457,1.3512,-0.1803,0.6778,-0.1161
2026.0,2.7712,-9.8457,1.3512,-0.1803,0.6778,-0.1161
2031.0,2.7712,-9.8457,1.3512,-0.1803,0.6778,-0.1161
2036.0,2.3162,-9.6646,0.8393,-0.1803,0.6778,-0.1161
2041.0,2.3162,-9.6646,0.8393,-0.0343,0.88,0.1521
2046.0,2.3162,-9.6646,0.8393,-0.0343,0.88,0.1521
2052.0,2.3162,-9.6646,0.8393,-0.0343,0.88,0.1521
2057.0,2.3162,-9.6646,0.8393,-0.0343,0.88,0.1521
2061.0,2.3258,-9.9268,0.4886,-0.0343,0.88,0.1521
2066.0,2.3258,-9.9268,0.4886,-0.0343,0.88,0.1521
2071.0,2.3258,-9.9268,0.4886,0.0714,0.5208,0.405
2076.0,2.3258,-9.9268,0.4886,0.0714,0.5208,0.405
2081.0,2.3258,-9.9268,0.4886,0.0714,0.5208,0.405
2086.0,2.0289,-9.6074,-3.0704,0.0714,0.5208,0.405
2091.0,2.0289,-9.6074,-3.0704,0.0714,0.5208,0.405
2096.0,2.0289,-9.6074,-3.0704,0.0714,0.5208,0.405
2101.0,2.0289,-9.6074,-3.0704,0.1374,-0.9984,0.4013
2106.0,2.0289,-9.6074,-3.0704,0.1374,-0.9984,0.4013
2111.0,2.0289,-9.6074,-3.0704,0.1374,-0.9984,0.4013
2116.0,2.2923,-9.8505,0.664,0.1374,-0.9984,0.4013
2121.0,2.2923,-9.8505,0.664,0.1374,-0.9984,0.4013
2126.0,2.2923,-9.8505,0.664,0.1374,-0.9984,0.4013
2132.0,2.2923,-9.8505,0.664,0.408,-0.4181,0.5314
2136.0,2.2923,-9.8505,0.664,0.408,-0.4181,0.5314
2141.0,2.7999,-9.5359,0.9389,0.408,-0.4181,0.5314
2146.0,2.7999,-9.5359,0.9389,0.408,-0.4181,0.5314
2151.0,2.7999,-9.5359,0.9389,0.408,-0.4181,0.5314
2156.0,2.7999,-9.5359,0.9389,0.408,-0.4181,0.5314
2161.0,2.7999,-9.5359,0.9389,0.4276,-0.0992,0.3299
2166.0,3.4417,-9.3166,1.0336,0.4276,-0.0992,0.3299
2171.0,3.4417,-9.3166,1.0336,0.4276,-0.0992,0.3299
2176.0,3.4417,-9.3166,1.0336,0.4276,-0.0992,0.3299
2181.0,3.4417,-9.3166,1.0336,0.4276,-0.0992,0.3299
2186.0,3.4417,-9.3166,1.0336,0.4276,-0.0992,0.3299
2191.0,3.4417,-9.3166,1.0336,0.3671,0.1977,0.4856
2196.0,3.8344,-8.6683,-0.2601,0.3671,0.1977,0.4856
2202.0,3.8344,-8.6683,-0.2601,0.3671,0.1977,0.4856
2207.0,3.8344,-8.6683,-0.2601,0.3671,0.1977,0.4856
2211.0,3.8344,-8.6683,-0.2601,0.3671,0.1977,0.4856
2217.0,3.8344,-8.6683,-0.2601,0.3671,0.1977,0.4856
2222.0,4.0978,-8.5968,-0.8241,0.2406,0.0205,0.3274
2226.0,4.0978,-8.5968,-0.8241,0.2406,0.0205,0.3274
2231.0,4.0978,-8.5968,-0.8241,0.2406,0.0205,0.3274
2236.0,4.0978,-8.5968,-0.8241,0.2406,0.0205,0.3274
2241.0,4.0978,-8.5968,-0.8241,0.2406,0.0205,0.3274
2246.0,4.0978,-8.5968,-0.8241,0.2406,0.0205,0.3274
2251.0,3.9446,-9.0115,0.1853,0.2406,0.0205,0.3274
2256.0,3.9446,-9.0115,0.1853,0.2663,-0.1304,0.3958
2262.0,3.9446,-9.0115,0.1853,0.2663,-0.1304,0.3958
2266.0,3.9446,-9.0115,0.1853,0.2663,-0.1304,0.3958
2271.0,3.9446,-9.0115,0.1853,0.2663,-0.1304,0.3958
2276.0,3.4704,-9.0115,0.4744,0.2663,-0.1304,0.3958
2281.0,3.4704,-9.0115,0.4744,0.2663,-0.1304,0.3958
2287.0,3.4704,-9.0115,0.4744,0.1747,-0.2629,0.5278
2291.0,3.4704,-9.0115,0.4744,0.1747,-0.2629,0.5278
2297.0,3.4704,-9.0115,0.4744,0.1747,-0.2629,0.5278
2301.0,3.4704,-9.0115,0.4744,0.1747,-0.2629,0.5278
2307.0,3.1304,-8.3728,0.6261,0.1747,-0.2629,0.5278
2311.0,3.1304,-8.3728,0.6261,0.1747,-0.2629,0.5278
2316.0,3.1304,-8.3728,0.6261,0.0928,-0.1694,0.5064
2321.0,3.1304,-8.3728,0.6261,0.0928,-0.1694,0.5064
2326.0,3.1304,-8.3728,0.6261,0.0928,-0.1694,0.5064
2331.0,2.9867,-8.6779,0.8346,0.0928,-0.1694,0.5064
2336.0,2.9867,-8.6779,0.8346,0.0928,-0.1694,0.5064
2341.0,2.9867,-8.6779,0.8346,0.0928,-0.1694,0.5064
2346.0,2.9867,-8.6779,0.8346,0.0354,-0.0131,0.4985
2351.0,2.9867,-8.6779,0.8346,0.0354,-0.0131,0.4985
2357.0,2.9867,-8.6779,0.8346,0.0354,-0.0131,0.4985
2361.0,2.9867,-8.6779,0.8346,0.0354,-0.0131,0.4985
2366.0,3.3795,-9.3214,1.0384,0.0354,-0.0131,0.4985
2371.0,3.3795,-9.3214,1.0384,0.0354,-0.0131,0.4985
2376.0,3.3795,-9.3214,1.0384,0.0226,0.1366,0.5125
2381.0,3.3795,-9.3214,1.0384,0.0226,0.1366,0.5125
2387.0,3.3795,-9.3214,1.0384,0.0226,0.1366,0.5125
2391.0,3.3795,-9.3214,1.0384,0.0226,0.1366,0.5125
2396.0,3.4225,-8.9925,1.1,0.0226,0.1366,0.5125
2401.0,3.4225,-8.9925,1.1,0.0226,0.1366,0.5125
2406.0,3.4225,-8.9925,1.1,0.0226,0.1366,0.5125
2411.0,3.4225,-8.9925,1.1,0.0415,0.0981,0.6481
2417.0,3.4225,-8.9925,1.1,0.0415,0.0981,0.6481
2421.0,3.6333,-8.8113,0.9531,0.0415,0.0981,0.6481
2430.0,3.6333,-8.8113,0.9531,0.0415,0.0981,0.6481
2430.0,3.6333,-8.8113,0.9531,0.0415,0.0981,0.6481
2437.0,3.6333,-8.8113,0.9531,0.0415,0.0981,0.6481
2442.0,3.6333,-8.8113,0.9531,0.0128,-0.0845,0.8186
2446.0,3.6333,-8.8113,0.9531,0.0128,-0.0845,0.8186
2451.0,3.9589,-9.1879,0.7967,0.0128,-0.0845,0.8186
2457.0,3.9589,-9.1879,0.7967,0.0128,-0.0845,0.8186
2461.0,3.9589,-9.1879,0.7967,0.0128,-0.0845,0.8186
2467.0,3.9589,-9.1879,0.7967,0.0128,-0.0845,0.8186
2471.0,3.9589,-9.1879,0.7967,-0.0501,-0.2348,0.7324
2477.0,3.9685,-9.2737,0.9199,-0.0501,-0.2348,0.7324
2481.0,3.9685,-9.2737,0.9199,-0.0501,-0.2348,0.7324
2487.0,3.9685,-9.2737,0.9199,-0.0501,-0.2348,0.7324
2491.0,3.9685,-9.2737,0.9199,-0.0501,-0.2348,0.7324
2496.0,3.9685,-9.2737,0.9199,-0.0501,-0.2348,0.7324
2501.0,3.9685,-9.2737,0.9199,-0.1576,-0.2165,0.6322
2506.0,3.8967,-9.7218,1.1758,-0.1576,-0.2165,0.6322
2511.0,3.8967,-9.7218,1.1758,-0.1576,-0.2165,0.6322
2516.0,3.8967,-9.7218,1.1758,-0.1576,-0.2165,0.6322
2522.0,3.8967,-9.7218,1.1758,-0.1576,-0.2165,0.6322
2529.0,3.8967,-9.7218,1.1758,-0.1576,-0.2165,0.6322
2532.0,3.3268,-10.0793,1.5976,-0.1576,-0.2165,0.6322
2536.0,3.3268,-10.0793,1.5976,-0.2438,-0.2299,0.5467
2541.0,3.3268,-10.0793,1.5976,-0.2438,-0.2299,0.5467
2546.0,3.3268,-10.0793,1.5976,-0.2438,-0.2299,0.5467
2552.0,3.3268,-10.0793,1.5976,-0.2438,-0.2299,0.5467
2556.0,2.7856,-10.0602,1.6402,-0.2438,-0.2299,0.5467
2561.0,2.7856,-10.0602,1.6402,-0.2438,-0.2299,0.5467
2566.0,2.7856,-10.0602,1.6402,-0.2682,-0.2183,0.4698
2572.0,2.7856,-10.0602,1.6402,-0.2682,-0.2183,0.4698
2576.0,2.7856,-10.0602,1.6402,-0.2682,-0.2183,0.4698
2581.0,2.7856,-10.0602,1.6402,-0.2682,-0.2183,0.4698
2587.0,2.3929,-10.6465,1.6308,-0.2682,-0.2183,0.4698
2592.0,2.3929,-10.6465,1.6308,-0.2682,-0.2183,0.4698
2597.0,2.3929,-10.6465,1.6308,-0.187,-0.1688,0.2572
2601.0,2.3929,-10.6465,1.6308,-0.187,-0.1688,0.2572
2607.0,2.3929,-10.6465,1.6308,-0.187,-0.1688,0.2572
2611.0,2.6227,-11.9193,2.2231,-0.187,-0.1688,0.2572
2616.0,2.6227,-11.9193,2.2231,-0.187,-0.1688,0.2572
2621.0,2.6227,-11.9193,2.2231,-0.187,-0.1688,0.2572
2626.0,2.6227,-11.9193,2.2231,-0.0739,0.3138,0.0959
2631.0,2.6227,-11.9193,2.2231,-0.0739,0.3138,0.0959
2636.0,2.6659,-13.4685,2.8203,-0.0739,0.3138,0.0959
2641.0,2.6659,-13.4685,2.8203,-0.0739,0.3138,0.0959
2646.0,2.6659,-13.4685,2.8203,-0.0739,0.3138,0.0959
2651.0,2.6659,-13.4685,2.8203,-0.0739,0.3138,0.0959
2656.0,2.6659,-13.4685,2.8203,0.3384,1.2863,0.0104
2661.0,2.6659,-13.4685,2.8203,0.3384,1.2863,0.0104
2666.0,3.5566,-15.7184,2.3985,0.3384,1.2863,0.0104
2671.0,3.5566,-15.7184,2.3985,0.3384,1.2863,0.0104
2676.0,3.5566,-15.7184,2.3985,0.3384,1.2863,0.0104
2681.0,3.5566,-15.7184,2.3985,0.3384,1.2863,0.0104
2688.0,3.5566,-15.7184,2.3985,0.7574,1.1519,-0.0702
2691.0,6.1189,-14.2741,1.8061,0.7574,1.1519,-0.0702
2696.0,6.1189,-14.2741,1.8061,0.7574,1.1519,-0.0702
2701.0,6.1189,-14.2741,1.8061,0.7574,1.1519,-0.0702
2706.0,6.1189,-14.2741,1.8061,0.7574,1.1519,-0.0702
2711.0,6.1189,-14.2741,1.8061,0.7574,1.1519,-0.0702
2717.0,8.8631,-10.923,-1.5065,0.1722,1.8202,-0.3128
2721.0,8.8631,-10.923,-1.5065,0.1722,1.8202,-0.3128
2727.0,8.8631,-10.923,-1.5065,0.1722,1.8202,-0.3128
2732.0,8.8631,-10.923,-1.5065,0.1722,1.8202,-0.3128
2736.0,8.8631,-10.923,-1.5065,0.1722,1.8202,-0.3128
2741.0,8.8631,-10.923,-1.5065,0.1722,1.8202,-0.3128
2746.0,7.2683,-8.5301,-4.6769,0.1722,1.8202,-0.3128
2751.0,7.2683,-8.5301,-4.6769,-0.7575,0.0101,-1.8809
2756.0,7.2683,-8.5301,-4.6769,-0.7575,0.0101,-1.8809
2765.0,7.2683,-8.5301,-4.6769,-0.7575,0.0101,-1.8809
2766.0,7.2683,-8.5301,-4.6769,-0.7575,0.0101,-1.8809
2771.0,6.0854,-11.5093,-2.6628,-0.7575,0.0101,-1.8809
2776.0,6.0854,-11.5093,-2.6628,-0.7575,0.0101,-1.8809
2782.0,6.0854,-11.5093,-2.6628,-0.3598,-3.5408,-2.7697
2786.0,6.0854,-11.5093,-2.6628,-0.3598,-3.5408,-2.7697
2792.0,6.0854,-11.5093,-2.6628,-0.3598,-3.5408,-2.7697
2796.0,5.2281,-12.4627,-0.9757,-0.3598,-3.5408,-2.7697
2801.0,5.2281,-12.4627,-0.9757,-0.3598,-3.5408,-2.7697
2808.0,5.2281,-12.4627,-0.9757,-0.3598,-3.5408,-2.7697
2811.0,5.2281,-12.4627,-0.9757,-0.2651,-2.7883,-3.2865
2816.0,5.2281,-12.4627,-0.9757,-0.2651,-2.7883,-3.2865
2821.0,5.1754,-11.7048,-0.2744,-0.2651,-2.7883,-3.2865
2826.0,5.1754,-11.7048,-0.2744,-0.2651,-2.7883,-3.2865
2831.0,5.1754,-11.7048,-0.2744,-0.2651,-2.7883,-3.2865
2836.0,5.1754,-11.7048,-0.2744,-0.2651,-2.7883,-3.2865
2841.0,5.1754,-11.7048,-0.2744,-0.2645,-3.3026,-2.8729
2846.0,5.1754,-11.7048,-0.2744,-0.2645,-3.3026,-2.8729
2852.0,6.3344,-11.5093,0.972,-0.2645,-3.3026,-2.8729
2856.0,6.3344,-11.5093,0.972,-0.2645,-3.3026,-2.8729
2862.0,6.3344,-11.5093,0.972,-0.2645,-3.3026,-2.8729
2866.0,6.3344,-11.5093,0.972,-0.2645,-3.3026,-2.8729
2871.0,6.3344,-11.5093,0.972,-0.3604,-3.6954,-2.022
2877.0,7.0432,-11.2233,2.171,-0.3604,-3.6954,-2.022
2882.0,7.0432,-11.2233,2.171,-0.3604,-3.6954,-2.022
2886.0,7.0432,-11.2233,2.171,-0.3604,-3.6954,-2.022
2892.0,7.0432,-11.2233,2.171,-0.3604,-3.6954,-2.022
2896.0,7.0432,-11.2233,2.171,-0.3604,-3.6954,-2.022
2902.0,7.0432,-11.2233,2.171,-0.3604,-3.6954,-2.022
2906.0,4.6534,-10.9326,0.5787,-0.0458,-1.6325,-1.6017
2912.0,4.6534,-10.9326,0.5787,-0.0458,-1.6325,-1.6017
2916.0,4.6534,-10.9326,0.5787,-0.0458,-1.6325,-1.6017
2921.0,4.6534,-10.9326,0.5787,-0.0458,-1.6325,-1.6017
2926.0,4.6534,-10.9326,0.5787,-0.0458,-1.6325,-1.6017
2931.0,2.0241,-12.3531,-5.1935,-0.0458,-1.6325,-1.6017
2936.0,2.0241,-12.3531,-5.1935,1.2242,-2.4046,-2.427
2941.0,2.0241,-12.3531,-5.1935,1.2242,-2.4046,-2.427
2946.0,2.0241,-12.3531,-5.1935,1.2242,-2.4046,-2.427
2951.0,2.0241,-12.3531,-5.1935,1.2242,-2.4046,-2.427
2956.0,2.0241,-12.3531,-5.1935,1.2242,-2.4046,-2.427
2961.0,3.5806,-9.4977,-0.0374,1.2242,-2.4046,-2.427
2966.0,3.5806,-9.4977,-0.0374,0.664,-2.0002,-2.6878
2971.0,3.5806,-9.4977,-0.0374,0.664,-2.0002,-2.6878
2976.0,3.5806,-9.4977,-0.0374,0.664,-2.0002,-2.6878
2981.0,3.5806,-9.4977,-0.0374,0.664,-2.0002,-2.6878
2986.0,2.9532,-9.4691,0.6118,0.664,-2.0002,-2.6878
2991.0,2.9532,-9.4691,0.6118,0.664,-2.0002,-2.6878
2996.0,2.9532,-9.4691,0.6118,0.7636,-0.4535,-3.0488
3001.0,2.9532,-9.4691,0.6118,0.7636,-0.4535,-3.0488
3006.0,2.9532,-9.4691,0.6118,0.7636,-0.4535,-3.0488
3011.0,2.9532,-9.4691,0.6118,0.7636,-0.4535,-3.0488
3016.0,3.3986,-7.5148,-0.6535,0.7636,-0.4535,-3.0488
3021.0,3.3986,-7.5148,-0.6535,0.7636,-0.4535,-3.0488
3026.0,3.3986,-7.5148,-0.6535,0.7904,-0.3228,-3.948
3031.0,3.3986,-7.5148,-0.6535,0.7904,-0.3228,-3.948
3036.0,3.3986,-7.5148,-0.6535,0.7904,-0.3228,-3.948
3041.0,3.0059,-5.589,-0.1037,0.7904,-0.3228,-3.948
3046.0,3.0059,-5.589,-0.1037,0.7904,-0.3228,-3.948
3052.0,3.0059,-5.589,-0.1037,0.7904,-0.3228,-3.948
3056.0,3.0059,-5.589,-0.1037,0.6554,-0.0393,-4.4245
3062.0,3.0059,-5.589,-0.1037,0.6554,-0.0393,-4.4245
3066.0,2.7569,-4.0922,0.446,0.6554,-0.0393,-4.4245
3071.0,2.7569,-4.0922,0.446,0.6554,-0.0393,-4.4245
3076.0,2.7569,-4.0922,0.446,0.6554,-0.0393,-4.4245
3081.0,2.7569,-4.0922,0.446,0.6554,-0.0393,-4.4245
3086.0,2.7569,-4.0922,0.446,0.27,1.0957,-4.1313
3092.0,2.3737,-2.705,-0.7246,0.27,1.0957,-4.1313
3096.0,2.3737,-2.705,-0.7246,0.27,1.0957,-4.1313
3102.0,2.3737,-2.705,-0.7246,0.27,1.0957,-4.1313
3106.0,2.3737,-2.705,-0.7246,0.27,1.0957,-4.1313
3111.0,2.3737,-2.705,-0.7246,0.27,1.0957,-4.1313
3116.0,2.0385,-1.8089,-1.6629,0.27,1.0957,-4.1313
3121.0,2.0385,-1.8089,-1.6629,0.1142,0.3571,-1.9927
3126.0,2.0385,-1.8089,-1.6629,0.1142,0.3571,-1.9927
3131.0,2.0385,-1.8089,-1.6629,0.1142,0.3571,-1.9927
3136.0,2.0385,-1.8089,-1.6629,0.1142,0.3571,-1.9927
3141.0,2.0385,-1.8089,-1.6629,0.1142,0.3571,-1.9927
3146.0,1.5883,-2.5048,-2.459,0.1142,0.3571,-1.9927
3151.0,1.5883,-2.5048,-2.459,0.6139,0.0993,-0.1643
3156.0,1.5883,-2.5048,-2.459,0.6139,0.0993,-0.1643
3161.0,1.5883,-2.5048,-2.459,0.6139,0.0993,-0.1643
3166.0,1.5883,-2.5048,-2.459,0.6139,0.0993,-0.1643
3171.0,1.0471,-2.9053,-2.7908,0.6139,0.0993,-0.1643
3177.0,1.0471,-2.9053,-2.7908,0.6139,0.0993,-0.1643
3181.0,1.0471,-2.9053,-2.7908,0.7098,1.0205,0.832
3186.0,1.0471,-2.9053,-2.7908,0.7098,1.0205,0.832
3191.0,1.0471,-2.9053,-2.7908,0.7098,1.0205,0.832
3197.0,1.0471,-2.9053,-2.7908,0.7098,1.0205,0.832
3202.0,-0.5717,-2.2713,-4.4731,0.7098,1.0205,0.832
3206.0,-0.5717,-2.2713,-4.4731,0.7098,1.0205,0.832
3211.0,-0.5717,-2.2713,-4.4731,0.8014,1.7884,1.6158
3216.0,-0.5717,-2.2713,-4.4731,0.8014,1.7884,1.6158
3221.0,-0.5717,-2.2713,-4.4731,0.8014,1.7884,1.6158
3227.0,-3.2297,-5.3315,-9.2738,0.8014,1.7884,1.6158
3231.0,-3.2297,-5.3315,-9.2738,0.8014,1.7884,1.6158
3236.0,-3.2297,-5.3315,-9.2738,0.8014,1.7884,1.6158
3241.0,-3.2297,-5.3315,-9.2738,0.821,2.1659,2.5198
3246.0,-3.2297,-5.3315,-9.2738,0.821,2.1659,2.5198
3251.0,-3.2297,-5.3315,-9.2738,0.821,2.1659,2.5198
3256.0,-1.7977,-5.5365,-16.2023,0.821,2.1659,2.5198
3261.0,-1.7977,-5.5365,-16.2023,0.821,2.1659,2.5198
3266.0,-1.7977,-5.5365,-16.2023,0.821,2.1659,2.5198
3272.0,-1.7977,-5.5365,-16.2023,-0.3372,-2.1597,3.5217
3276.0,-1.7977,-5.5365,-16.2023,-0.3372,-2.1597,3.5217
3281.0,-1.7977,-5.5365,-16.2023,-0.3372,-2.1597,3.5217
3286.0,11.0518,-3.9873,-1.8382,-0.3372,-2.1597,3.5217
3291.0,11.0518,-3.9873,-1.8382,-0.3372,-2.1597,3.5217
3297.0,11.0518,-3.9873,-1.8382,-0.3372,-2.1597,3.5217
3301.0,11.0518,-3.9873,-1.8382,-2.7062,-1.9239,2.6384
3306.0,11.0518,-3.9873,-1.8382,-2.7062,-1.9239,2.6384
3311.0,11.0518,-3.9873,-1.8382,-2.7062,-1.9239,2.6384
3317.0,19.0163,-18.6738,-7.7099,-2.7062,-1.9239,2.6384
3321.0,19.0163,-18.6738,-7.7099,-2.7062,-1.9239,2.6384
3327.0,19.0163,-18.6738,-7.7099,-2.7062,-1.9239,2.6384
3331.0,19.0163,-18.6738,-7.7099,-0.4796,0.2111,0.7288
3336.0,19.0163,-18.6738,-7.7099,-0.4796,0.2111,0.7288
3341.0,8.1639,-9.6884,-6.1508,-0.4796,0.2111,0.7288
3346.0,8.1639,-9.6884,-6.1508,-0.4796,0.2111,0.7288
3351.0,8.1639,-9.6884,-6.1508,-0.4796,0.2111,0.7288
3356.0,8.1639,-9.6884,-6.1508,-0.4796,0.2111,0.7288
3361.0,8.1639,-9.6884,-6.1508,-0.1381,-0.2684,1.4643
3366.0,2.321,-0.9652,0.6118,-0.1381,-0.2684,1.4643
3372.0,2.321,-0.9652,0.6118,-0.1381,-0.2684,1.4643
3377.0,2.321,-0.9652,0.6118,-0.1381,-0.2684,1.4643
3382.0,2.321,-0.9652,0.6118,-0.1381,-0.2684,1.4643
3387.0,2.321,-0.9652,0.6118,-0.1381,-0.2684,1.4643
3391.0,2.321,-0.9652,0.6118,-0.1381,-0.2684,1.4643
3396.0,0.8555,-3.3819,-2.5586,-0.9115,0.2142,2.598
3401.0,0.8555,-3.3819,-2.5586,-0.9115,0.2142,2.598
3407.0,0.8555,-3.3819,-2.5586,-0.9115,0.2142,2.598
3411.0,0.8555,-3.3819,-2.5586,-0.9115,0.2142,2.598
3416.0,0.8555,-3.3819,-2.5586,-0.9115,0.2142,2.598
3421.0,6.0423,-10.6418,-0.644,-0.9115,0.2142,2.598
3426.0,6.0423,-10.6418,-0.644,-0.2267,-0.3759,2.4459
3431.0,6.0423,-10.6418,-0.644,-0.2267,-0.3759,2.4459
3436.0,6.0423,-10.6418,-0.644,-0.2267,-0.3759,2.4459
3441.0,6.0423,-10.6418,-0.644,-0.2267,-0.3759,2.4459
3447.0,8.4752,-14.9224,-1.8051,-0.2267,-0.3759,2.4459
3451.0,8.4752,-14.9224,-1.8051,-0.2267,-0.3759,2.4459
3456.0,8.4752,-14.9224,-1.8051,0.0953,0.362,2.1441
3461.0,8.4752,-14.9224,-1.8051,0.0953,0.362,2.1441
3466.0,8.4752,-14.9224,-1.8051,0.0953,0.362,2.1441
3471.0,8.4752,-14.9224,-1.8051,0.0953,0.362,2.1441
3476.0,4.6917,-13.6496,-1.7577,0.0953,0.362,2.1441
3481.0,4.6917,-13.6496,-1.7577,0.0953,0.362,2.1441
3486.0,4.6917,-13.6496,-1.7577,-0.1259,0.4933,1.8033
3491.0,4.6917,-13.6496,-1.7577,-0.1259,0.4933,1.8033
3496.0,4.6917,-13.6496,-1.7577,-0.1259,0.4933,1.8033
3501.0,4.6917,-13.6496,-1.7577,-0.1259,0.4933,1.8033
3506.0,1.4111,-9.2356,-1.5965,-0.1259,0.4933,1.8033
3511.0,1.4111,-9.2356,-1.5965,-0.1259,0.4933,1.8033
3516.0,1.4111,-9.2356,-1.5965,-0.1259,0.4933,1.8033
3521.0,1.4111,-9.2356,-1.5965,-0.4637,0.4542,1.7795
3526.0,1.4111,-9.2356,-1.5965,-0.4637,0.4542,1.7795
3531.0,0.0845,-8.368,-1.8951,-0.4637,0.4542,1.7795
3536.0,0.0845,-8.368,-1.8951,-0.4637,0.4542,1.7795
3541.0,0.0845,-8.368,-1.8951,-0.4637,0.4542,1.7795
3546.0,0.0845,-8.368,-1.8951,-0.4637,0.4542,1.7795
3552.0,0.0845,-8.368,-1.8951,-0.2847,0.7371,1.2382
3556.0,0.0845,-8.368,-1.8951,-0.2847,0.7371,1.2382
3562.0,1.1668,-7.9867,-1.1606,-0.2847,0.7371,1.2382
3566.0,1.1668,-7.9867,-1.1606,-0.2847,0.7371,1.2382
3571.0,1.1668,-7.9867,-1.1606,-0.2847,0.7371,1.2382
3577.0,1.1668,-7.9867,-1.1606,-0.2847,0.7371,1.2382
3582.0,1.1668,-7.9867,-1.1606,-0.3244,2.0413,0.6127
3587.0,1.1668,-7.9867,-1.1606,-0.3244,2.0413,0.6127
3591.0,3.14,-8.5539,-1.3975,-0.3244,2.0413,0.6127
3596.0,3.14,-8.5539,-1.3975,-0.3244,2.0413,0.6127
3601.0,3.14,-8.5539,-1.3975,-0.3244,2.0413,0.6127
3606.0,3.14,-8.5539,-1.3975,-0.3244,2.0413,0.6127
3612.0,3.14,-8.5539,-1.3975,0.011,2.9973,0.0916
3616.0,3.116,-8.5777,-1.516,0.011,2.9973,0.0916
3621.0,3.116,-8.5777,-1.516,0.011,2.9973,0.0916
3626.0,3.116,-8.5777,-1.516,0.011,2.9973,0.0916
3631.0,3.116,-8.5777,-1.516,0.011,2.9973,0.0916
3636.0,3.116,-8.5777,-1.516,0.011,2.9973,0.0916
3641.0,2.3067,-7.9247,-0.4497,0.1594,2.5501,0.3012
3646.0,2.3067,-7.9247,-0.4497,0.1594,2.5501,0.3012
3651.0,2.3067,-7.9247,-0.4497,0.1594,2.5501,0.3012
3656.0,2.3067,-7.9247,-0.4497,0.1594,2.5501,0.3012
3661.0,2.3067,-7.9247,-0.4497,0.1594,2.5501,0.3012
3666.0,2.3067,-7.9247,-0.4497,0.1594,2.5501,0.3012
3672.0,1.7655,-6.6091,-0.1606,0.2962,1.3657,0.5339
3676.0,1.7655,-6.6091,-0.1606,0.2962,1.3657,0.5339
3681.0,1.7655,-6.6091,-0.1606,0.2962,1.3657,0.5339
3686.0,1.7655,-6.6091,-0.1606,0.2962,1.3657,0.5339
3691.0,1.7655,-6.6091,-0.1606,0.2962,1.3657,0.5339
3696.0,1.7128,-6.161,0.0906,0.2962,1.3657,0.5339
3701.0,1.7128,-6.161,0.0906,0.2962,1.3657,0.5339
3706.0,1.7128,-6.161,0.0906,0.5455,-0.1957,0.7385
3711.0,1.7128,-6.161,0.0906,0.5455,-0.1957,0.7385
3716.0,1.7128,-6.161,0.0906,0.5455,-0.1957,0.7385
3721.0,2.3785,-7.4528,0.4412,0.5455,-0.1957,0.7385
3726.0,2.3785,-7.4528,0.4412,0.5455,-0.1957,0.7385
3731.0,2.3785,-7.4528,0.4412,0.5455,-0.1957,0.7385
3737.0,2.3785,-7.4528,0.4412,0.8533,-1.2977,1.0403
3741.0,2.3785,-7.4528,0.4412,0.8533,-1.2977,1.0403
3747.0,2.3785,-7.4528,0.4412,0.8533,-1.2977,1.0403
3751.0,3.8967,-9.2642,0.7825,0.8533,-1.2977,1.0403
3756.0,3.8967,-9.2642,0.7825,0.8533,-1.2977,1.0403
3761.0,3.8967,-9.2642,0.7825,0.8533,-1.2977,1.0403
3767.0,3.8967,-9.2642,0.7825,0.9743,-0.3936,1.5938
3771.0,3.8967,-9.2642,0.7825,0.9743,-0.3936,1.5938
3776.0,3.8967,-9.2642,0.7825,0.9743,-0.3936,1.5938
3782.0,6.9139,-11.1804,2.5691,0.9743,-0.3936,1.5938
3786.0,6.9139,-11.1804,2.5691,0.9743,-0.3936,1.5938
3791.0,6.9139,-11.1804,2.5691,0.9743,-0.3936,1.5938
3796.0,6.9139,-11.1804,2.5691,0.3537,4.3192,1.8503
3801.0,6.9139,-11.1804,2.5691,0.3537,4.3192,1.8503
3806.0,5.0892,-10.4606,-8.5203,0.3537,4.3192,1.8503
3811.0,5.0892,-10.4606,-8.5203,0.3537,4.3192,1.8503
3816.0,5.0892,-10.4606,-8.5203,0.3537,4.3192,1.8503
3821.0,5.0892,-10.4606,-8.5203,0.3537,4.3192,1.8503
3826.0,5.0892,-10.4606,-8.5203,-0.165,2.0144,-1.7361
3832.0,3.4369,-11.066,-7.8995,-0.165,2.0144,-1.7361
3836.0,3.4369,-11.066,-7.8995,-0.165,2.0144,-1.7361
3841.0,3.4369,-11.066,-7.8995,-0.165,2.0144,-1.7361
3846.0,3.4369,-11.066,-7.8995,-0.165,2.0144,-1.7361
3851.0,3.4369,-11.066,-7.8995,-0.165,2.0144,-1.7361
3856.0,3.4369,-11.066,-7.8995,-0.0855,0.1659,-0.5919
3861.0,3.2693,-12.9346,-1.2127,-0.0855,0.1659,-0.5919
3866.0,3.2693,-12.9346,-1.2127,-0.0855,0.1659,-0.5919
3871.0,3.2693,-12.9346,-1.2127,-0.0855,0.1659,-0.5919
3876.0,3.2693,-12.9346,-1.2127,-0.0855,0.1659,-0.5919
3881.0,3.2693,-12.9346,-1.2127,-0.0855,0.1659,-0.5919
3886.0,4.0643,-12.9823,0.1427,0.6554,-0.2159,1.2749
3891.0,4.0643,-12.9823,0.1427,0.6554,-0.2159,1.2749
3896.0,4.0643,-12.9823,0.1427,0.6554,-0.2159,1.2749
3901.0,4.0643,-12.9823,0.1427,0.6554,-0.2159,1.2749
3906.0,4.0643,-12.9823,0.1427,0.6554,-0.2159,1.2749
3911.0,6.4828,-12.825,-0.8762,0.6554,-0.2159,1.2749
3916.0,6.4828,-12.825,-0.8762,0.6554,-0.2159,1.2749
3921.0,6.4828,-12.825,-0.8762,0.6328,-0.9,0.6884
3926.0,6.4828,-12.825,-0.8762,0.6328,-0.9,0.6884
3931.0,6.4828,-12.825,-0.8762,0.6328,-0.9,0.6884
3936.0,6.4828,-12.825,-0.8762,0.6328,-0.9,0.6884
3942.0,7.6562,-13.7354,-0.7482,0.6328,-0.9,0.6884
3946.0,7.6562,-13.7354,-0.7482,0.6328,-0.9,0.6884
3951.0,7.6562,-13.7354,-0.7482,0.0598,-1.0277,-0.6945
3956.0,7.6562,-13.7354,-0.7482,0.0598,-1.0277,-0.6945
3962.0,7.6562,-13.7354,-0.7482,0.0598,-1.0277,-0.6945
3966.0,7.1629,-12.415,0.8583,0.0598,-1.0277,-0.6945
3971.0,7.1629,-12.415,0.8583,0.0598,-1.0277,-0.6945
3976.0,7.1629,-12.415,0.8583,0.0598,-1.0277,-0.6945
3981.0,7.1629,-12.415,0.8583,-0.2657,-0.9049,-1.5406
3986.0,7.1629,-12.415,0.8583,-0.2657,-0.9049,-1.5406
3991.0,5.6591,-9.2785,1.2421,-0.2657,-0.9049,-1.5406
3997.0,5.6591,-9.2785,1.2421,-0.2657,-0.9049,-1.5406
4001.0,5.6591,-9.2785,1.2421,-0.2657,-0.9049,-1.5406
4006.0,5.6591,-9.2785,1.2421,-0.2657,-0.9049,-1.5406
4011.0,5.6591,-9.2785,1.2421,-0.4771,-0.718,-1.7404
4017.0,5.6591,-9.2785,1.2421,-0.4771,-0.718,-1.7404
4021.0,6.7654,-7.9009,0.8535,-0.4771,-0.718,-1.7404
4026.0,6.7654,-7.9009,0.8535,-0.4771,-0.718,-1.7404
4031.0,6.7654,-7.9009,0.8535,-0.4771,-0.718,-1.7404
4036.0,6.7654,-7.9009,0.8535,-0.4771,-0.718,-1.7404
4041.0,6.7654,-7.9009,0.8535,-0.9273,0.2386,-1.6927
4046.0,6.4733,-9.7695,-0.9947,-0.9273,0.2386,-1.6927
4051.0,6.4733,-9.7695,-0.9947,-0.9273,0.2386,-1.6927
4056.0,6.4733,-9.7695,-0.9947,-0.9273,0.2386,-1.6927
4061.0,6.4733,-9.7695,-0.9947,-0.9273,0.2386,-1.6927
4066.0,6.4733,-9.7695,-0.9947,-0.9273,0.2386,-1.6927
4071.0,3.5279,-13.0824,-9.1743,-0.8131,0.9258,-3.2651
4076.0,3.5279,-13.0824,-9.1743,-0.8131,0.9258,-3.2651
4081.0,3.5279,-13.0824,-9.1743,-0.8131,0.9258,-3.2651
4086.0,3.5279,-13.0824,-9.1743,-0.8131,0.9258,-3.2651
4091.0,3.5279,-13.0824,-9.1743,-0.8131,0.9258,-3.2651
4096.0,3.5279,-13.0824,-9.1743,-0.8131,0.9258,-3.2651
4101.0,3.5279,-13.0824,-9.1743,-0.8131,0.9258,-3.2651
4106.0,3.5375,-11.4807,-6.601,-0.6469,-1.9025,-5.0055
4111.0,3.5375,-11.4807,-6.601,-0.6469,-1.9025,-5.0055
4116.0,3.5375,-11.4807,-6.601,-0.6469,-1.9025,-5.0055
4121.0,3.5375,-11.4807,-6.601,-0.6469,-1.9025,-5.0055
4126.0,3.5375,-11.4807,-6.601,-0.6469,-1.9025,-5.0055
4131.0,3.3555,-9.431,-0.6819,-0.6469,-1.9025,-5.0055
4136.0,3.3555,-9.431,-0.6819,-0.8797,-2.1737,-3.598
4141.0,3.3555,-9.431,-0.6819,-0.8797,-2.1737,-3.598
4147.0,3.3555,-9.431,-0.6819,-0.8797,-2.1737,-3.598
4152.0,3.3555,-9.431,-0.6819,-0.8797,-2.1737,-3.598
4156.0,3.3555,-9.431,-0.6819,-0.8797,-2.1737,-3.598
4161.0,3.2549,-9.1307,2.9245,-0.8797,-2.1737,-3.598
4166.0,3.2549,-9.1307,2.9245,-1.0147,-3.5659,-0.0061
4171.0,3.2549,-9.1307,2.9245,-1.0147,-3.5659,-0.0061
4176.0,3.2549,-9.1307,2.9245,-1.0147,-3.5659,-0.0061
4181.0,3.2549,-9.1307,2.9245,-1.0147,-3.5659,-0.0061
4187.0,3.7769,-9.226,4.4315,-1.0147,-3.5659,-0.0061
4191.0,3.7769,-9.226,4.4315,-1.0147,-3.5659,-0.0061
4197.0,3.7769,-9.226,4.4315,0.0714,-3.3252,0.6145
4201.0,3.7769,-9.226,4.4315,0.0714,-3.3252,0.6145
4206.0,3.7769,-9.226,4.4315,0.0714,-3.3252,0.6145
4214.0,1.8804,-11.066,-3.4969,0.0714,-3.3252,0.6145
4216.0,1.8804,-11.066,-3.4969,0.0714,-3.3252,0.6145
4222.0,1.8804,-11.066,-3.4969,0.9945,-0.9049,-1.6072
4227.0,1.8804,-11.066,-3.4969,0.9945,-0.9049,-1.6072
4231.0,1.8804,-11.066,-3.4969,0.9945,-0.9049,-1.6072
4237.0,1.8804,-11.066,-3.4969,0.9945,-0.9049,-1.6072
4242.0,1.8804,-11.066,-3.4969,0.9945,-0.9049,-1.6072
4246.0,2.9532,-9.1212,-1.2885,0.9945,-0.9049,-1.6072
4251.0,2.9532,-9.1212,-1.2885,0.9945,-0.9049,-1.6072
4256.0,2.9532,-9.1212,-1.2885,0.4392,0.6284,-3.8454
4261.0,2.9532,-9.1212,-1.2885,0.4392,0.6284,-3.8454
4266.0,2.9532,-9.1212,-1.2885,0.4392,0.6284,-3.8454
4271.0,4.1601,-6.2182,-2.8382,0.4392,0.6284,-3.8454
4277.0,4.1601,-6.2182,-2.8382,0.4392,0.6284,-3.8454
4281.0,4.1601,-6.2182,-2.8382,0.4392,0.6284,-3.8454
4286.0,4.1601,-6.2182,-2.8382,0.0256,0.5208,-5.1802
4291.0,4.1601,-6.2182,-2.8382,0.0256,0.5208,-5.1802
4296.0,4.1601,-6.2182,-2.8382,0.0256,0.5208,-5.1802
4301.0,5.0413,-5.4841,-3.9708,0.0256,0.5208,-5.1802
4306.0,5.0413,-5.4841,-3.9708,0.0256,0.5208,-5.1802
4311.0,5.0413,-5.4841,-3.9708,0.0256,0.5208,-5.1802
4316.0,5.0413,-5.4841,-3.9708,-0.0324,0.687,-4.5363
4321.0,5.0413,-5.4841,-3.9708,-0.0324,0.687,-4.5363
4326.0,4.4331,-4.4831,-3.2505,-0.0324,0.687,-4.5363
4331.0,4.4331,-4.4831,-3.2505,-0.0324,0.687,-4.5363
4336.0,4.4331,-4.4831,-3.2505,-0.0324,0.687,-4.5363
4341.0,4.4331,-4.4831,-3.2505,-0.0324,0.687,-4.5363
4346.0,4.4331,-4.4831,-3.2505,0.1222,-0.9672,-1.6261
4351.0,4.4331,-4.4831,-3.2505,0.1222,-0.9672,-1.6261
4356.0,2.2061,-3.2628,-2.1084,0.1222,-0.9672,-1.6261
4362.0,2.2061,-3.2628,-2.1084,0.1222,-0.9672,-1.6261
4366.0,2.2061,-3.2628,-2.1084,0.1222,-0.9672,-1.6261
4371.0,2.2061,-3.2628,-2.1084,0.1222,-0.9672,-1.6261
4376.0,2.2061,-3.2628,-2.1084,0.1222,-0.9672,-1.6261
4381.0,1.2291,-3.3819,-2.4259,0.5107,-0.963,-0.0929
4386.0,1.2291,-3.3819,-2.4259,0.5107,-0.963,-0.0929
4391.0,1.2291,-3.3819,-2.4259,0.5107,-0.963,-0.0929
4397.0,1.2291,-3.3819,-2.4259,0.5107,-0.963,-0.0929
4401.0,1.2291,-3.3819,-2.4259,0.5107,-0.963,-0.0929
4406.0,1.2818,-3.4534,-3.0799,0.5107,-0.963,-0.0929
4411.0,1.2818,-3.4534,-3.0799,0.4844,0.0077,0.0776
4416.0,1.2818,-3.4534,-3.0799,0.4844,0.0077,0.0776
4421.0,1.2818,-3.4534,-3.0799,0.4844,0.0077,0.0776
4426.0,1.2818,-3.4534,-3.0799,0.4844,0.0077,0.0776
4431.0,1.2818,-3.4534,-3.0799,0.4844,0.0077,0.0776
4436.0,2.1342,-1.7183,-4.0703,0.4844,0.0077,0.0776
4441.0,2.1342,-1.7183,-4.0703,0.2199,0.7285,0.3671
4447.0,2.1342,-1.7183,-4.0703,0.2199,0.7285,0.3671
4451.0,2.1342,-1.7183,-4.0703,0.2199,0.7285,0.3671
4456.0,2.1342,-1.7183,-4.0703,0.2199,0.7285,0.3671
4461.0,2.1342,-1.7183,-4.0703,0.2199,0.7285,0.3671
4467.0,0.8555,-1.6039,-5.2361,0.2199,0.7285,0.3671
4471.0,0.8555,-1.6039,-5.2361,0.2901,1.169,1.43
4476.0,0.8555,-1.6039,-5.2361,0.2901,1.169,1.43
4481.0,0.8555,-1.6039,-5.2361,0.2901,1.169,1.43
4487.0,0.8555,-1.6039,-5.2361,0.2901,1.169,1.43
4491.0,-2.018,-4.4974,-7.8426,0.2901,1.169,1.43
4496.0,-2.018,-4.4974,-7.8426,0.2901,1.169,1.43
4501.0,-2.018,-4.4974,-7.8426,0.5528,1.6265,2.2077
4506.0,-2.018,-4.4974,-7.8426,0.5528,1.6265,2.2077
4511.0,-2.018,-4.4974,-7.8426,0.5528,1.6265,2.2077
4516.0,-2.018,-4.4974,-7.8426,0.5528,1.6265,2.2077
4521.0,-1.6924,-4.3162,-10.6245,0.5528,1.6265,2.2077
4526.0,-1.6924,-4.3162,-10.6245,0.5528,1.6265,2.2077
4531.0,-1.6924,-4.3162,-10.6245,-0.0122,0.1855,2.9413
4537.0,-1.6924,-4.3162,-10.6245,-0.0122,0.1855,2.9413
4541.0,-1.6924,-4.3162,-10.6245,-0.0122,0.1855,2.9413
4546.0,11.1619,-4.4831,-4.5158,-0.0122,0.1855,2.9413
4551.0,11.1619,-4.4831,-4.5158,-0.0122,0.1855,2.9413
4556.0,11.1619,-4.4831,-4.5158,-0.0122,0.1855,2.9413
4562.0,11.1619,-4.4831,-4.5158,-1.9841,-0.6728,2.959
4566.0,11.1619,-4.4831,-4.5158,-1.9841,-0.6728,2.959
4571.0,11.1619,-4.4831,-4.5158,-1.9841,-0.6728,2.959
4577.0,18.3075,-17.0627,-6.6816,-1.9841,-0.6728,2.959
4581.0,18.3075,-17.0627,-6.6816,-1.9841,-0.6728,2.959
4586.0,18.3075,-17.0627,-6.6816,-1.9841,-0.6728,2.959
4592.0,18.3075,-17.0627,-6.6816,-1.1686,0.7212,1.4068
4596.0,18.3075,-17.0627,-6.6816,-1.1686,0.7212,1.4068
4601.0,12.5029,-18.6548,-10.9562,-1.1686,0.7212,1.4068
4606.0,12.5029,-18.6548,-10.9562,-1.1686,0.7212,1.4068
4611.0,12.5029,-18.6548,-10.9562,-1.1686,0.7212,1.4068
4616.0,12.5029,-18.6548,-10.9562,-1.1686,0.7212,1.4068
4621.0,12.5029,-18.6548,-10.9562,-0.0428,-0.3557,1.813
4626.0,1.3823,-3.6584,-0.5824,-0.0428,-0.3557,1.813
4632.0,1.3823,-3.6584,-0.5824,-0.0428,-0.3557,1.813
4636.0,1.3823,-3.6584,-0.5824,-0.0428,-0.3557,1.813
4641.0,1.3823,-3.6584,-0.5824,-0.0428,-0.3557,1.813
4646.0,1.3823,-3.6584,-0.5824,-0.0428,-0.3557,1.813
4651.0,1.3823,-3.6584,-0.5824,-0.0428,-0.3557,1.813
4656.0,0.3958,-1.5801,0.1616,-0.8766,-0.316,3.3647
4661.0,0.3958,-1.5801,0.1616,-0.8766,-0.316,3.3647
4666.0,0.3958,-1.5801,0.1616,-0.8766,-0.316,3.3647
4671.0,0.3958,-1.5801,0.1616,-0.8766,-0.316,3.3647
4676.0,0.3958,-1.5801,0.1616,-0.8766,-0.316,3.3647
4681.0,0.98,-5.322,-0.8573,-0.8766,-0.316,3.3647
4687.0,0.98,-5.322,-0.8573,-0.4429,-0.8432,3.3616
4691.0,0.98,-5.322,-0.8573,-0.4429,-0.8432,3.3616
4697.0,0.98,-5.322,-0.8573,-0.4429,-0.8432,3.3616
4701.0,0.98,-5.322,-0.8573,-0.4429,-0.8432,3.3616
4706.0,5.343,-10.3796,-0.0421,-0.4429,-0.8432,3.3616
4711.0,5.343,-10.3796,-0.0421,-0.4429,-0.8432,3.3616
4716.0,5.343,-10.3796,-0.0421,0.6255,-0.0925,2.5015
4721.0,5.343,-10.3796,-0.0421,0.6255,-0.0925,2.5015
4726.0,5.343,-10.3796,-0.0421,0.6255,-0.0925,2.5015
4731.0,7.7185,-14.479,-0.5255,0.6255,-0.0925,2.5015
4736.0,7.7185,-14.479,-0.5255,0.6255,-0.0925,2.5015
4741.0,7.7185,-14.479,-0.5255,0.6255,-0.0925,2.5015
4746.0,7.7185,-14.479,-0.5255,0.2358,0.6607,1.8754
4751.0,7.7185,-14.479,-0.5255,0.2358,0.6607,1.8754
4756.0,7.7185,-14.479,-0.5255,0.2358,0.6607,1.8754
4761.0,2.0193,-14.174,-2.0136,0.2358,0.6607,1.8754
4768.0,2.0193,-14.174,-2.0136,0.2358,0.6607,1.8754
4771.0,2.0193,-14.174,-2.0136,0.2358,0.6607,1.8754
4776.0,2.0193,-14.174,-2.0136,-0.0519,1.0328,1.6646
4781.0,2.0193,-14.174,-2.0136,-0.0519,1.0328,1.6646
4786.0,-0.1406,-8.5396,-2.4117,-0.0519,1.0328,1.6646
4791.0,-0.1406,-8.5396,-2.4117,-0.0519,1.0328,1.6646
4796.0,-0.1406,-8.5396,-2.4117,-0.0519,1.0328,1.6646
4801.0,-0.1406,-8.5396,-2.4117,-0.0519,1.0328,1.6646
4806.0,-0.1406,-8.5396,-2.4117,-0.2095,0.6357,1.5088
4811.0,0.4676,-6.1038,-0.7151,-0.2095,0.6357,1.5088
4817.0,0.4676,-6.1038,-0.7151,-0.2095,0.6357,1.5088
4821.0,0.4676,-6.1038,-0.7151,-0.2095,0.6357,1.5088
4826.0,0.4676,-6.1038,-0.7151,-0.2095,0.6357,1.5088
4831.0,0.4676,-6.1038,-0.7151,-0.2095,0.6357,1.5088
4837.0,0.4676,-6.1038,-0.7151,-0.2095,0.6357,1.5088
4841.0,1.3584,-5.3935,0.3939,-0.1698,1.1879,1.077
4846.0,1.3584,-5.3935,0.3939,-0.1698,1.1879,1.077
4851.0,1.3584,-5.3935,0.3939,-0.1698,1.1879,1.077
4856.0,1.3584,-5.3935,0.3939,-0.1698,1.1879,1.077
4861.0,1.3584,-5.3935,0.3939,-0.1698,1.1879,1.077
4866.0,2.072,-5.6319,0.337,-0.1698,1.1879,1.077
4872.0,2.072,-5.6319,0.337,0.0684,2.4054,0.7281
4876.0,2.072,-5.6319,0.337,0.0684,2.4054,0.7281
4881.0,2.072,-5.6319,0.337,0.0684,2.4054,0.7281
4886.0,2.072,-5.6319,0.337,0.0684,2.4054,0.7281
4891.0,2.072,-5.6319,0.337,0.0684,2.4054,0.7281
4897.0,2.5461,-6.5948,0.3844,0.0684,2.4054,0.7281
4901.0,2.5461,-6.5948,0.3844,0.0977,2.7426,0.5211
4906.0,2.5461,-6.5948,0.3844,0.0977,2.7426,0.5211
4911.0,2.5461,-6.5948,0.3844,0.0977,2.7426,0.5211
4916.0,2.5461,-6.5948,0.3844,0.0977,2.7426,0.5211
4921.0,2.5892,-7.5291,0.228,0.0977,2.7426,0.5211
4926.0,2.5892,-7.5291,0.228,0.0977,2.7426,0.5211
4931.0,2.5892,-7.5291,0.228,0.1405,1.8189,0.3341
4936.0,2.5892,-7.5291,0.228,0.1405,1.8189,0.3341
4941.0,2.5892,-7.5291,0.228,0.1405,1.8189,0.3341
4948.0,2.8383,-7.877,0.0858,0.1405,1.8189,0.3341
4951.0,2.8383,-7.877,0.0858,0.1405,1.8189,0.3341
4956.0,2.8383,-7.877,0.0858,0.1405,1.8189,0.3341
4961.0,2.8383,-7.877,0.0858,0.587,0.0499,0.3964
4967.0,2.8383,-7.877,0.0858,0.587,0.0499,0.3964
4972.0,4.2367,-9.779,0.0906,0.587,0.0499,0.3964
4976.0,4.2367,-9.779,0.0906,0.587,0.0499,0.3964
4982.0,4.2367,-9.779,0.0906,0.587,0.0499,0.3964
4986.0,4.2367,-9.779,0.0906,0.587,0.0499,0.3964
4991.0,4.2367,-9.779,0.0906,0.9419,-2.1493,0.6597
4996.0,4.2367,-9.779,0.0906,0.9419,-2.1493,0.6597
5001.0,6.6744,-13.192,0.5834,0.9419,-2.1493,0.6597
5007.0,6.6744,-13.192,0.5834,0.9419,-2.1493,0.6597
5011.0,6.6744,-13.192,0.5834,0.9419,-2.1493,0.6597
5017.0,6.6744,-13.192,0.5834,0.9419,-2.1493,0.6597
5021.0,6.6744,-13.192,0.5834,0.7917,-3.4248,1.1057
5026.0,7.1055,-13.8403,9.436,0.7917,-3.4248,1.1057
5031.0,7.1055,-13.8403,9.436,0.7917,-3.4248,1.1057
5036.0,7.1055,-13.8403,9.436,0.7917,-3.4248,1.1057
5041.0,7.1055,-13.8403,9.436,0.7917,-3.4248,1.1057
5046.0,7.1055,-13.8403,9.436,0.7917,-3.4248,1.1057
5051.0,6.1237,-10.9707,-2.7576,0.3231,5.2869,1.9114
5057.0,6.1237,-10.9707,-2.7576,0.3231,5.2869,1.9114
5062.0,6.1237,-10.9707,-2.7576,0.3231,5.2869,1.9114
5066.0,6.1237,-10.9707,-2.7576,0.3231,5.2869,1.9114
5072.0,6.1237,-10.9707,-2.7576,0.3231,5.2869,1.9114
5076.0,6.1237,-10.9707,-2.7576,0.3231,5.2869,1.9114
5081.0,5.3239,-8.2536,-2.7529,0.3231,5.2869,1.9114
5087.0,5.3239,-8.2536,-2.7529,-0.2773,0.5123,0.281
5092.0,5.3239,-8.2536,-2.7529,-0.2773,0.5123,0.281
5097.0,5.3239,-8.2536,-2.7529,-0.2773,0.5123,0.281
5101.0,5.3239,-8.2536,-2.7529,-0.2773,0.5123,0.281
5106.0,4.2559,-10.6227,-0.6772,-0.2773,0.5123,0.281
5112.0,4.2559,-10.6227,-0.6772,-0.2773,0.5123,0.281
5116.0,4.2559,-10.6227,-0.6772,-0.2334,-0.8835,-1.1008
5121.0,4.2559,-10.6227,-0.6772,-0.2334,-0.8835,-1.1008
5126.0,4.2559,-10.6227,-0.6772,-0.2334,-0.8835,-1.1008
5132.0,3.0155,-12.5819,1.6165,-0.2334,-0.8835,-1.1008
5136.0,3.0155,-12.5819,1.6165,-0.2334,-0.8835,-1.1008
5141.0,3.0155,-12.5819,1.6165,-0.2334,-0.8835,-1.1008
5146.0,3.0155,-12.5819,1.6165,-0.0996,1.4384,-0.6096
5151.0,3.0155,-12.5819,1.6165,-0.0996,1.4384,-0.6096
5156.0,3.0155,-12.5819,1.6165,-0.0996,1.4384,-0.6096
5161.0,1.1429,-11.8096,0.3796,-0.0996,1.4384,-0.6096
5167.0,1.1429,-11.8096,0.3796,-0.0996,1.4384,-0.6096
5171.0,1.1429,-11.8096,0.3796,-0.0996,1.4384,-0.6096
5177.0,1.1429,-11.8096,0.3796,-0.0996,1.4384,-0.6096
5181.0,1.1429,-11.8096,0.3796,0.493,0.9857,1.0715
5186.0,0.8507,-9.2737,-0.8999,0.493,0.9857,1.0715
5191.0,0.8507,-9.2737,-0.8999,0.493,0.9857,1.0715
5196.0,0.8507,-9.2737,-0.8999,0.493,0.9857,1.0715
5201.0,0.8507,-9.2737,-0.8999,0.493,0.9857,1.0715
5206.0,0.8507,-9.2737,-0.8999,0.493,0.9857,1.0715
5212.0,0.8507,-9.2737,-0.8999,0.493,0.9857,1.0715
5216.0,0.8507,-9.2737,-0.8999,0.493,0.9857,1.0715
5222.0,2.1199,-9.8314,-4.6343,0.565,0.8947,1.0165
5226.0,2.1199,-9.8314,-4.6343,0.565,0.8947,1.0165
5231.0,2.1199,-9.8314,-4.6343,0.565,0.8947,1.0165
5236.0,2.1199,-9.8314,-4.6343,0.565,0.8947,1.0165
5241.0,2.1199,-9.8314,-4.6343,0.565,0.8947,1.0165
5247.0,5.3382,-12.0623,-4.2836,0.565,0.8947,1.0165
5251.0,5.3382,-12.0623,-4.2836,0.565,0.8947,1.0165
5256.0,5.3382,-12.0623,-4.2836,-0.0428,-0.1077,-0.9664
5261.0,5.3382,-12.0623,-4.2836,-0.0428,-0.1077,-0.9664
5266.0,5.3382,-12.0623,-4.2836,-0.0428,-0.1077,-0.9664
5271.0,5.3382,-12.0623,-4.2836,-0.0428,-0.1077,-0.9664
5276.0,5.5633,-12.9203,0.0763,-0.0428,-0.1077,-0.9664
5282.0,5.5633,-12.9203,0.0763,-0.0428,-0.1077,-0.9664
5288.0,5.5633,-12.9203,0.0763,-0.2107,-2.3728,-0.7361
5292.0,5.5633,-12.9203,0.0763,-0.2107,-2.3728,-0.7361
5296.0,5.5633,-12.9203,0.0763,-0.2107,-2.3728,-0.7361
5301.0,4.3804,-13.2874,2.4459,-0.2107,-2.3728,-0.7361
5306.0,4.3804,-13.2874,2.4459,-0.2107,-2.3728,-0.7361
5311.0,4.3804,-13.2874,2.4459,-0.2107,-2.3728,-0.7361
5316.0,4.3804,-13.2874,2.4459,0.0013,-1.8597,-1.0831
5321.0,4.3804,-13.2874,2.4459,0.0013,-1.8597,-1.0831
5326.0,4.3804,-13.2874,2.4459,0.0013,-1.8597,-1.0831
5332.0,4.6294,-11.0041,2.4696,0.0013,-1.8597,-1.0831
5337.0,4.6294,-11.0041,2.4696,0.0013,-1.8597,-1.0831
5342.0,4.6294,-11.0041,2.4696,0.0013,-1.8597,-1.0831
5349.0,4.6294,-11.0041,2.4696,-0.1912,-1.1871,-1.1973
5351.0,4.6294,-11.0041,2.4696,-0.1912,-1.1871,-1.1973
5356.0,6.4206,-8.8113,2.3606,-0.1912,-1.1871,-1.1973
5361.0,6.4206,-8.8113,2.3606,-0.1912,-1.1871,-1.1973
5366.0,6.4206,-8.8113,2.3606,-0.1912,-1.1871,-1.1973
5372.0,6.4206,-8.8113,2.3606,-0.1912,-1.1871,-1.1973
5377.0,6.4206,-8.8113,2.3606,-0.1912,-1.1871,-1.1973
5381.0,5.6735,-7.9867,-0.0184,-0.4429,1.5917,-1.0055
5386.0,5.6735,-7.9867,-0.0184,-0.4429,1.5917,-1.0055
5392.0,5.6735,-7.9867,-0.0184,-0.4429,1.5917,-1.0055
5399.0,5.6735,-7.9867,-0.0184,-0.4429,1.5917,-1.0055
5402.0,5.6735,-7.9867,-0.0184,-0.4429,1.5917,-1.0055
5406.0,5.6735,-7.9867,-0.0184,-0.4429,1.5917,-1.0055
5411.0,2.1534,-13.8784,-14.2688,-0.5247,1.8471,-3.9352
5416.0,2.1534,-13.8784,-14.2688,-0.5247,1.8471,-3.9352
5421.0,2.1534,-13.8784,-14.2688,-0.5247,1.8471,-3.9352
5426.0,2.1534,-13.8784,-14.2688,-0.5247,1.8471,-3.9352
5432.0,2.1534,-13.8784,-14.2688,-0.5247,1.8471,-3.9352
5437.0,2.1534,-13.8784,-14.2688,-0.5247,1.8471,-3.9352
5441.0,3.8584,-13.7354,-7.7384,-0.5247,1.8471,-3.9352
5446.0,3.8584,-13.7354,-7.7384,-0.9144,-1.9605,-6.5125
5451.0,3.8584,-13.7354,-7.7384,-0.9144,-1.9605,-6.5125
5456.0,3.8584,-13.7354,-7.7384,-0.9144,-1.9605,-6.5125
5461.0,3.8584,-13.7354,-7.7384,-0.9144,-1.9605,-6.5125
5466.0,4.7635,-13.2301,-0.3549,-0.9144,-1.9605,-6.5125
5471.0,4.7635,-13.2301,-0.3549,-0.9144,-1.9605,-6.5125
5476.0,4.7635,-13.2301,-0.3549,-1.0354,-2.1547,-3.2266
5481.0,4.7635,-13.2301,-0.3549,-1.0354,-2.1547,-3.2266
5486.0,4.7635,-13.2301,-0.3549,-1.0354,-2.1547,-3.2266
5491.0,4.4379,-10.0602,2.915,-1.0354,-2.1547,-3.2266
5497.0,4.4379,-10.0602,2.915,-1.0354,-2.1547,-3.2266
5502.0,4.4379,-10.0602,2.915,-1.0354,-2.1547,-3.2266
5506.0,4.4379,-10.0602,2.915,-0.3121,-3.313,0.1777
5511.0,4.4379,-10.0602,2.915,-0.3121,-3.313,0.1777
5516.0,3.8344,-8.94,2.3179,-0.3121,-3.313,0.1777
5521.0,3.8344,-8.94,2.3179,-0.3121,-3.313,0.1777
5526.0,3.8344,-8.94,2.3179,-0.3121,-3.313,0.1777
5531.0,3.8344,-8.94,2.3179,-0.3121,-3.313,0.1777
5536.0,3.8344,-8.94,2.3179,1.0391,-3.0442,-0.1851
5541.0,1.5835,-11.6047,-4.0372,1.0391,-3.0442,-0.1851
5546.0,1.5835,-11.6047,-4.0372,1.0391,-3.0442,-0.1851
5551.0,1.5835,-11.6047,-4.0372,1.0391,-3.0442,-0.1851
5556.0,1.5835,-11.6047,-4.0372,1.0391,-3.0442,-0.1851
5561.0,1.5835,-11.6047,-4.0372,1.0391,-3.0442,-0.1851
5566.0,1.5835,-11.6047,-4.0372,1.3201,-0.5744,-3.3696
5571.0,2.9245,-10.9659,-0.734,1.3201,-0.5744,-3.3696
5577.0,2.9245,-10.9659,-0.734,1.3201,-0.5744,-3.3696
5581.0,2.9245,-10.9659,-0.734,1.3201,-0.5744,-3.3696
5586.0,2.9245,-10.9659,-0.734,1.3201,-0.5744,-3.3696
5592.0,2.9245,-10.9659,-0.734,1.3201,-0.5744,-3.3696
5597.0,2.9245,-10.9659,-0.734,1.3201,-0.5744,-3.3696
5601.0,3.4465,-8.5253,-1.5871,0.6824,0.9625,-4.9908
5606.0,3.4465,-8.5253,-1.5871,0.6824,0.9625,-4.9908
5611.0,3.4465,-8.5253,-1.5871,0.6824,0.9625,-4.9908
5617.0,3.4465,-8.5253,-1.5871,0.6824,0.9625,-4.9908
5621.0,3.4465,-8.5253,-1.5871,0.6824,0.9625,-4.9908
5626.0,4.6773,-6.1753,-3.0799,0.6824,0.9625,-4.9908
5631.0,4.6773,-6.1753,-3.0799,0.358,0.8318,-5.3824
5636.0,4.6773,-6.1753,-3.0799,0.358,0.8318,-5.3824
5641.0,4.6773,-6.1753,-3.0799,0.358,0.8318,-5.3824
5646.0,4.6773,-6.1753,-3.0799,0.358,0.8318,-5.3824
5651.0,4.7156,-3.2532,-2.9424,0.358,0.8318,-5.3824
5656.0,4.7156,-3.2532,-2.9424,0.358,0.8318,-5.3824
5662.0,4.7156,-3.2532,-2.9424,0.1741,0.3028,-3.7318
5666.0,4.7156,-3.2532,-2.9424,0.1741,0.3028,-3.7318
5672.0,4.7156,-3.2532,-2.9424,0.1741,0.3028,-3.7318
5676.0,4.7156,-3.2532,-2.9424,0.1741,0.3028,-3.7318
5681.0,4.7156,-3.2532,-2.9424,0.1741,0.3028,-3.7318
5686.0,2.0911,-1.1844,-2.1036,0.1741,0.3028,-3.7318
5692.0,2.0911,-1.1844,-2.1036,0.1198,-0.8176,-1.1851
5696.0,2.0911,-1.1844,-2.1036,0.1198,-0.8176,-1.1851
5701.0,2.0911,-1.1844,-2.1036,0.1198,-0.8176,-1.1851
5706.0,2.0911,-1.1844,-2.1036,0.1198,-0.8176,-1.1851
5711.0,0.5634,-0.6649,-2.17,0.1198,-0.8176,-1.1851
5716.0,0.5634,-0.6649,-2.17,0.1198,-0.8176,-1.1851
5721.0,0.5634,-0.6649,-2.17,0.1198,-0.8176,-1.1851
5726.0,0.5634,-0.6649,-2.17,0.1656,-0.3753,-0.2621
5731.0,0.5634,-0.6649,-2.17,0.1656,-0.3753,-0.2621
5737.0,0.2808,-2.6049,-2.7339,0.1656,-0.3753,-0.2621
5741.0,0.2808,-2.6049,-2.7339,0.1656,-0.3753,-0.2621
5746.0,0.2808,-2.6049,-2.7339,0.1656,-0.3753,-0.2621
5751.0,0.2808,-2.6049,-2.7339,0.1656,-0.3753,-0.2621
5756.0,0.2808,-2.6049,-2.7339,0.0043,0.7133,0.2657
5761.0,0.2808,-2.6049,-2.7339,0.0043,0.7133,0.2657
5767.0,1.6458,-1.5181,-4.4874,0.0043,0.7133,0.2657
5771.0,1.6458,-1.5181,-4.4874,0.0043,0.7133,0.2657
5776.0,1.6458,-1.5181,-4.4874,0.0043,0.7133,0.2657
5781.0,1.6458,-1.5181,-4.4874,0.0043,0.7133,0.2657
5786.0,1.6458,-1.5181,-4.4874,0.0043,0.7133,0.2657
5791.0,0.5442,-1.7374,-5.3736,0.019,1.0187,1.0556
5796.0,0.5442,-1.7374,-5.3736,0.019,1.0187,1.0556
5801.0,0.5442,-1.7374,-5.3736,0.019,1.0187,1.0556
5806.0,0.5442,-1.7374,-5.3736,0.019,1.0187,1.0556
5811.0,0.5442,-1.7374,-5.3736,0.019,1.0187,1.0556
5816.0,0.5442,-1.7374,-5.3736,0.019,1.0187,1.0556
5821.0,-1.8408,-4.5832,-7.2644,0.5101,1.2942,1.934
5826.0,-1.8408,-4.5832,-7.2644,0.5101,1.2942,1.934
5831.0,-1.8408,-4.5832,-7.2644,0.5101,1.2942,1.934
5836.0,-1.8408,-4.5832,-7.2644,0.5101,1.2942,1.934
5841.0,-1.8408,-4.5832,-7.2644,0.5101,1.2942,1.934
5846.0,-0.1933,-4.5784,-9.4634,0.5101,1.2942,1.934
5851.0,-0.1933,-4.5784,-9.4634,0.1985,1.8599,2.4331
5856.0,-0.1933,-4.5784,-9.4634,0.1985,1.8599,2.4331
5861.0,-0.1933,-4.5784,-9.4634,0.1985,1.8599,2.4331
5866.0,-0.1933,-4.5784,-9.4634,0.1985,1.8599,2.4331
5871.0,-0.1933,-4.5784,-9.4634,0.1985,1.8599,2.4331
5876.0,6.0135,-3.8491,-6.255,0.1985,1.8599,2.4331
5882.0,6.0135,-3.8491,-6.255,-1.0769,-1.3637,3.9798
5886.0,6.0135,-3.8491,-6.255,-1.0769,-1.3637,3.9798
5891.0,6.0135,-3.8491,-6.255,-1.0769,-1.3637,3.9798
5896.0,6.0135,-3.8491,-6.255,-1.0769,-1.3637,3.9798
5901.0,13.3506,-11.6857,-6.8095,-1.0769,-1.3637,3.9798
5906.0,13.3506,-11.6857,-6.8095,-1.0769,-1.3637,3.9798
5911.0,13.3506,-11.6857,-6.8095,-1.0769,-1.3637,3.9798
5916.0,13.3506,-11.6857,-6.8095,-1.4288,0.9662,2.923
5921.0,13.3506,-11.6857,-6.8095,-1.4288,0.9662,2.923
5926.0,13.3506,-11.6857,-6.8095,-1.4288,0.9662,2.923
5932.0,14.9406,-24.4369,-16.6241,-1.4288,0.9662,2.923
5936.0,14.9406,-24.4369,-16.6241,-1.4288,0.9662,2.923
5942.0,14.9406,-24.4369,-16.6241,-1.4288,0.9662,2.923
5946.0,14.9406,-24.4369,-16.6241,-0.1539,-0.6465,1.2749
5951.0,14.9406,-24.4369,-16.6241,-0.1539,-0.6465,1.2749
5956.0,3.8679,-5.1933,-2.5396,-0.1539,-0.6465,1.2749
5961.0,3.8679,-5.1933,-2.5396,-0.1539,-0.6465,1.2749
5966.0,3.8679,-5.1933,-2.5396,-0.1539,-0.6465,1.2749
5971.0,3.8679,-5.1933,-2.5396,-0.1539,-0.6465,1.2749
5976.0,3.8679,-5.1933,-2.5396,-0.8631,-0.3099,2.2339
5981.0,1.8565,-1.0033,-0.1654,-0.8631,-0.3099,2.2339
5986.0,1.8565,-1.0033,-0.1654,-0.8631,-0.3099,2.2339
5991.0,1.8565,-1.0033,-0.1654,-0.8631,-0.3099,2.2339
5996.0,1.8565,-1.0033,-0.1654,-0.8631,-0.3099,2.2339
6001.0,1.8565,-1.0033,-0.1654,-0.8631,-0.3099,2.2339
6006.0,1.1908,-3.5106,-0.2507,-1.0812,-0.4113,3.1124
6011.0,1.1908,-3.5106,-0.2507,-1.0812,-0.4113,3.1124
6017.0,1.1908,-3.5106,-0.2507,-1.0812,-0.4113,3.1124
6022.0,1.1908,-3.5106,-0.2507,-1.0812,-0.4113,3.1124
6026.0,1.1908,-3.5106,-0.2507,-1.0812,-0.4113,3.1124
6031.0,1.1908,-3.5106,-0.2507,-1.0812,-0.4113,3.1124
6036.0,3.9877,-8.4443,1.0242,-0.0495,-0.6099,3.124
6041.0,3.9877,-8.4443,1.0242,-0.0495,-0.6099,3.124
6047.0,3.9877,-8.4443,1.0242,-0.0495,-0.6099,3.124
6052.0,3.9877,-8.4443,1.0242,-0.0495,-0.6099,3.124
6057.0,3.9877,-8.4443,1.0242,-0.0495,-0.6099,3.124
6061.0,6.8756,-13.8069,0.138,-0.0495,-0.6099,3.124
6066.0,6.8756,-13.8069,0.138,0.5974,-0.1254,2.5027
6072.0,6.8756,-13.8069,0.138,0.5974,-0.1254,2.5027
6077.0,6.8756,-13.8069,0.138,0.5974,-0.1254,2.5027
6083.0,6.8756,-13.8069,0.138,0.5974,-0.1254,2.5027
6086.0,6.8756,-13.8069,0.138,0.5974,-0.1254,2.5027
6091.0,3.1112,-16.1951,-2.4211,0.5974,-0.1254,2.5027
6097.0,3.1112,-16.1951,-2.4211,0.5974,-0.1254,2.5027
6101.0,3.1112,-16.1951,-2.4211,-0.0562,0.5813,1.7526
6106.0,3.1112,-16.1951,-2.4211,-0.0562,0.5813,1.7526
6111.0,3.1112,-16.1951,-2.4211,-0.0562,0.5813,1.7526
6117.0,3.1112,-16.1951,-2.4211,-0.0562,0.5813,1.7526
6121.0,-0.8351,-8.9925,-3.6059,-0.0562,0.5813,1.7526
6126.0,-0.8351,-8.9925,-3.6059,-0.0562,0.5813,1.7526
6131.0,-0.8351,-8.9925,-3.6059,-0.3915,0.5997,1.5656
6136.0,-0.8351,-8.9925,-3.6059,-0.3915,0.5997,1.5656
6141.0,-0.8351,-8.9925,-3.6059,-0.3915,0.5997,1.5656
6146.0,0.7358,-6.9713,-1.8714,-0.3915,0.5997,1.5656
6151.0,0.7358,-6.9713,-1.8714,-0.3915,0.5997,1.5656
6156.0,0.7358,-6.9713,-1.8714,-0.3915,0.5997,1.5656
6161.0,0.7358,-6.9713,-1.8714,-0.3915,0.5997,1.5656
6166.0,0.7358,-6.9713,-1.8714,-0.2242,1.2392,0.8057
6172.0,0.7358,-6.9713,-1.8714,-0.2242,1.2392,0.8057
6176.0,3.1639,-8.1773,-1.061,-0.2242,1.2392,0.8057
6181.0,3.1639,-8.1773,-1.061,-0.2242,1.2392,0.8057
6186.0,3.1639,-8.1773,-1.061,-0.2242,1.2392,0.8057
6191.0,3.1639,-8.1773,-1.061,-0.2242,1.2392,0.8057
6196.0,3.1639,-8.1773,-1.061,0.0446,2.4811,0.2364
6202.0,3.1639,-8.1773,-1.061,0.0446,2.4811,0.2364
6208.0,3.9158,-8.02,-1.3264,0.0446,2.4811,0.2364
6212.0,3.9158,-8.02,-1.3264,0.0446,2.4811,0.2364
6216.0,3.9158,-8.02,-1.3264,0.0446,2.4811,0.2364
6221.0,3.9158,-8.02,-1.3264,0.0446,2.4811,0.2364
6226.0,3.9158,-8.02,-1.3264,-0.0403,2.362,0.2626
6231.0,3.1017,-7.7197,-1.9994,-0.0403,2.362,0.2626
6236.0,3.1017,-7.7197,-1.9994,-0.0403,2.362,0.2626
6241.0,3.1017,-7.7197,-1.9994,-0.0403,2.362,0.2626
6246.0,3.1017,-7.7197,-1.9994,-0.0403,2.362,0.2626
6251.0,3.1017,-7.7197,-1.9994,-0.0403,2.362,0.2626
6256.0,3.1017,-7.7197,-1.9994,-0.0403,2.362,0.2626
6261.0,1.8086,-7.8437,0.1948,-0.0098,0.8904,0.7715
6266.0,1.8086,-7.8437,0.1948,-0.0098,0.8904,0.7715
6271.0,1.8086,-7.8437,0.1948,-0.0098,0.8904,0.7715
6276.0,1.8086,-7.8437,0.1948,-0.0098,0.8904,0.7715
6281.0,1.8086,-7.8437,0.1948,-0.0098,0.8904,0.7715
6286.0,1.4207,-7.5386,0.4792,-0.0098,0.8904,0.7715
6291.0,1.4207,-7.5386,0.4792,0.055,-0.2391,1.014
6296.0,1.4207,-7.5386,0.4792,0.055,-0.2391,1.014
6301.0,1.4207,-7.5386,0.4792,0.055,-0.2391,1.014
6306.0,1.4207,-7.5386,0.4792,0.055,-0.2391,1.014
6311.0,1.4207,-7.5386,0.4792,0.055,-0.2391,1.014
6316.0,1.2243,-8.2202,0.6024,0.055,-0.2391,1.014
6321.0,1.2243,-8.2202,0.6024,0.055,-0.2391,1.014
6326.0,1.2243,-8.2202,0.6024,0.3098,-0.6728,0.9291
6331.0,1.2243,-8.2202,0.6024,0.3098,-0.6728,0.9291
6336.0,1.2243,-8.2202,0.6024,0.3098,-0.6728,0.9291
6341.0,1.7559,-8.9591,0.5929,0.3098,-0.6728,0.9291
6346.0,1.7559,-8.9591,0.5929,0.3098,-0.6728,0.9291
6351.0,1.7559,-8.9591,0.5929,0.3098,-0.6728,0.9291
6356.0,1.7559,-8.9591,0.5929,0.6928,-0.7546,0.857
6361.0,1.7559,-8.9591,0.5929,0.6928,-0.7546,0.857
6366.0,1.7559,-8.9591,0.5929,0.6928,-0.7546,0.857
6371.0,3.0298,-10.7705,0.7588,0.6928,-0.7546,0.857
6376.0,3.0298,-10.7705,0.7588,0.6928,-0.7546,0.857
6381.0,3.0298,-10.7705,0.7588,0.6928,-0.7546,0.857
6386.0,3.0298,-10.7705,0.7588,0.6866,-1.1169,1.5357
6391.0,3.0298,-10.7705,0.7588,0.6866,-1.1169,1.5357
6397.0,5.3909,-12.6534,3.5975,0.6866,-1.1169,1.5357
6402.0,5.3909,-12.6534,3.5975,0.6866,-1.1169,1.5357
6407.0,5.3909,-12.6534,3.5975,0.6866,-1.1169,1.5357
6411.0,5.3909,-12.6534,3.5975,0.6866,-1.1169,1.5357
6416.0,5.3909,-12.6534,3.5975,0.4771,4.3797,2.2474
6421.0,6.4877,-11.9097,-1.7624,0.4771,4.3797,2.2474
6426.0,6.4877,-11.9097,-1.7624,0.4771,4.3797,2.2474
6431.0,6.4877,-11.9097,-1.7624,0.4771,4.3797,2.2474
6436.0,6.4877,-11.9097,-1.7624,0.4771,4.3797,2.2474
6442.0,6.4877,-11.9097,-1.7624,0.4771,4.3797,2.2474
6447.0,6.4877,-11.9097,-1.7624,-0.1264,5.2264,-1.295
6451.0,3.7865,-9.6217,-13.2499,-0.1264,5.2264,-1.295
6456.0,3.7865,-9.6217,-13.2499,-0.1264,5.2264,-1.295
6461.0,3.7865,-9.6217,-13.2499,-0.1264,5.2264,-1.295
6466.0,3.7865,-9.6217,-13.2499,-0.1264,5.2264,-1.295
6471.0,3.7865,-9.6217,-13.2499,-0.1264,5.2264,-1.295
6476.0,3.7865,-9.6217,-13.2499,-0.5436,-0.7827,-2.2181
6481.0,4.4091,-11.0374,-2.3737,-0.5436,-0.7827,-2.2181
6487.0,4.4091,-11.0374,-2.3737,-0.5436,-0.7827,-2.2181
6492.0,4.4091,-11.0374,-2.3737,-0.5436,-0.7827,-2.2181
6496.0,4.4091,-11.0374,-2.3737,-0.5436,-0.7827,-2.2181
6501.0,4.4091,-11.0374,-2.3737,-0.5436,-0.7827,-2.2181
6506.0,5.1515,-11.557,0.6071,0.3079,-1.889,0.9554
6511.0,5.1515,-11.557,0.6071,0.3079,-1.889,0.9554
6516.0,5.1515,-11.557,0.6071,0.3079,-1.889,0.9554
6521.0,5.1515,-11.557,0.6071,0.3079,-1.889,0.9554
6526.0,5.1515,-11.557,0.6071,0.3079,-1.889,0.9554
6531.0,5.1515,-11.557,0.6071,0.3079,-1.889,0.9554
6536.0,5.9752,-12.2148,0.4128,0.3409,-1.933,1.8638
6541.0,5.9752,-12.2148,0.4128,0.3409,-1.933,1.8638
6546.0,5.9752,-12.2148,0.4128,0.3409,-1.933,1.8638
6553.0,5.9752,-12.2148,0.4128,0.3409,-1.933,1.8638
6556.0,5.9752,-12.2148,0.4128,0.3409,-1.933,1.8638
6561.0,4.4331,-13.0824,-0.4307,0.3409,-1.933,1.8638
6566.0,4.4331,-13.0824,-0.4307,0.3409,-1.933,1.8638
6572.0,4.4331,-13.0824,-0.4307,0.1601,-0.6606,0.0275
6577.0,4.4331,-13.0824,-0.4307,0.1601,-0.6606,0.0275
6581.0,4.4331,-13.0824,-0.4307,0.1601,-0.6606,0.0275
6586.0,4.4331,-13.0824,-0.4307,0.1601,-0.6606,0.0275
6591.0,4.0643,-12.3769,0.3939,0.1601,-0.6606,0.0275
6596.0,4.0643,-12.3769,0.3939,0.1601,-0.6606,0.0275
6601.0,4.0643,-12.3769,0.3939,-0.2553,-1.2281,-1.2498
6606.0,4.0643,-12.3769,0.3939,-0.2553,-1.2281,-1.2498
6611.0,4.0643,-12.3769,0.3939,-0.2553,-1.2281,-1.2498
6616.0,4.821,-12.9441,1.735,-0.2553,-1.2281,-1.2498
6621.0,4.821,-12.9441,1.735,-0.2553,-1.2281,-1.2498
6626.0,4.821,-12.9441,1.735,-0.2553,-1.2281,-1.2498
6631.0,4.821,-12.9441,1.735,-0.2553,-1.2281,-1.2498
6637.0,4.821,-12.9441,1.735,-0.2193,1.1672,-1.3855
6641.0,4.821,-12.9441,1.735,-0.2193,1.1672,-1.3855
6646.0,5.094,-9.7408,-1.6487,-0.2193,1.1672,-1.3855
6651.0,5.094,-9.7408,-1.6487,-0.2193,1.1672,-1.3855
6656.0,5.094,-9.7408,-1.6487,-0.2193,1.1672,-1.3855
6662.0,5.094,-9.7408,-1.6487,-0.2193,1.1672,-1.3855
6667.0,5.094,-9.7408,-1.6487,-0.3927,1.7206,-2.4698
6671.0,3.5279,-9.9744,-11.1031,-0.3927,1.7206,-2.4698
6676.0,3.5279,-9.9744,-11.1031,-0.3927,1.7206,-2.4698
6681.0,3.5279,-9.9744,-11.1031,-0.3927,1.7206,-2.4698
6687.0,3.5279,-9.9744,-11.1031,-0.3927,1.7206,-2.4698
6691.0,3.5279,-9.9744,-11.1031,-0.3927,1.7206,-2.4698
6697.0,3.5279,-10.127,-7.9185,-0.813,-2.2427,-4.328
6701.0,5.7022,-10.127,-7.9185,-0.813,-2.2427,-4.328
6706.0,5.7022,-10.127,-7.9185,-0.813,-2.2427,-4.328
6711.0,5.7022,-10.127,-7.9185,-0.813,-2.2427,-4.328
6716.0,5.7022,-10.127,-7.9185,-0.813,-2.2427,-4.328
6721.0,5.7022,-10.127,-7.9185,-0.813,-2.2427,-4.328
6726.0,5.2377,-11.6047,-3.3026,-0.813,-2.2427,-4.328
6731.0,5.2377,-11.6047,-3.3026,-1.2168,-2.7943,-4.2034
6736.0,5.2377,-11.6047,-3.3026,-1.2168,-2.7943,-4.2034
6742.0,5.2377,-11.6047,-3.3026,-1.2168,-2.7943,-4.2034
6746.0,5.2377,-11.6047,-3.3026,-1.2168,-2.7943,-4.2034
6751.0,6.0135,-12.0194,0.9957,-1.2168,-2.7943,-4.2034
6756.0,6.0135,-12.0194,0.9957,-1.2168,-2.7943,-4.2034
6761.0,6.0135,-12.0194,0.9957,-0.6994,-3.7974,-1.8509
6766.0,6.0135,-12.0194,0.9957,-0.6994,-3.7974,-1.8509
6771.0,6.0135,-12.0194,0.9957,-0.6994,-3.7974,-1.8509
6776.0,6.0135,-12.0194,0.9957,-0.6994,-3.7974,-1.8509
6781.0,5.4771,-11.333,4.6306,-0.6994,-3.7974,-1.8509
6787.0,5.4771,-11.333,4.6306,-0.6994,-3.7974,-1.8509
6791.0,5.4771,-11.333,4.6306,0.3751,-3.2726,-0.383
6796.0,5.4771,-11.333,4.6306,0.3751,-3.2726,-0.383
6801.0,5.4771,-11.333,4.6306,0.3751,-3.2726,-0.383
6808.0,4.4187,-9.0449,4.5832,0.3751,-3.2726,-0.383
6811.0,4.4187,-9.0449,4.5832,0.3751,-3.2726,-0.383
6816.0,4.4187,-9.0449,4.5832,0.3751,-3.2726,-0.383
6821.0,4.4187,-9.0449,4.5832,0.8198,-2.112,-0.4802
6826.0,4.4187,-9.0449,4.5832,0.8198,-2.112,-0.4802
6831.0,-1.3188,-13.2206,-8.1744,0.8198,-2.112,-0.4802
6837.0,-1.3188,-13.2206,-8.1744,0.8198,-2.112,-0.4802
6842.0,-1.3188,-13.2206,-8.1744,0.8198,-2.112,-0.4802
6847.0,-1.3188,-13.2206,-8.1744,0.8198,-2.112,-0.4802
6851.0,-1.3188,-13.2206,-8.1744,0.8198,-2.112,-0.4802
6856.0,-1.3188,-13.2206,-8.1744,1.3837,-0.5445,-3.89
6861.0,1.8038,-10.3891,-0.7056,1.3837,-0.5445,-3.89
6866.0,1.8038,-10.3891,-0.7056,1.3837,-0.5445,-3.89
6871.0,1.8038,-10.3891,-0.7056,1.3837,-0.5445,-3.89
6876.0,1.8038,-10.3891,-0.7056,1.3837,-0.5445,-3.89
6882.0,1.8038,-10.3891,-0.7056,1.3837,-0.5445,-3.89
6887.0,3.5088,-7.7626,-2.1937,0.5016,1.8672,-5.3219
6891.0,3.5088,-7.7626,-2.1937,0.5016,1.8672,-5.3219
6896.0,3.5088,-7.7626,-2.1937,0.5016,1.8672,-5.3219
6901.0,3.5088,-7.7626,-2.1937,0.5016,1.8672,-5.3219
6906.0,3.5088,-7.7626,-2.1937,0.5016,1.8672,-5.3219
6911.0,3.571,-6.1133,-3.5869,0.5016,1.8672,-5.3219
6916.0,3.571,-6.1133,-3.5869,0.3525,0.9265,-5.204
6921.0,3.571,-6.1133,-3.5869,0.3525,0.9265,-5.204
6926.0,3.571,-6.1133,-3.5869,0.3525,0.9265,-5.204
6932.0,3.571,-6.1133,-3.5869,0.3525,0.9265,-5.204
6936.0,3.571,-6.1133,-3.5869,0.3525,0.9265,-5.204
6941.0,3.1017,-3.2961,-2.0088,0.3525,0.9265,-5.204
6946.0,3.1017,-3.2961,-2.0088,0.2994,0.2533,-3.4863
6951.0,3.1017,-3.2961,-2.0088,0.2994,0.2533,-3.4863
6957.0,3.1017,-3.2961,-2.0088,0.2994,0.2533,-3.4863
6961.0,3.1017,-3.2961,-2.0088,0.2994,0.2533,-3.4863
6967.0,1.4925,-1.6897,-1.0468,0.2994,0.2533,-3.4863
6971.0,1.4925,-1.6897,-1.0468,0.2994,0.2533,-3.4863
6976.0,1.4925,-1.6897,-1.0468,0.2994,0.2533,-3.4863
6982.0,1.4925,-1.6897,-1.0468,0.2627,-0.3337,-1.3012
6986.0,1.4925,-1.6897,-1.0468,0.2627,-0.3337,-1.3012
6991.0,1.3823,-0.274,-1.9899,0.2627,-0.3337,-1.3012
6996.0,1.3823,-0.274,-1.9899,0.2627,-0.3337,-1.3012
7001.0,1.3823,-0.274,-1.9899,0.2627,-0.3337,-1.3012
7006.0,1.3823,-0.274,-1.9899,0.2627,-0.3337,-1.3012
7011.0,1.3823,-0.274,-1.9899,0.3024,0.1171,-0.3757
7016.0,1.3823,-0.274,-1.9899,0.3024,0.1171,-0.3757
7021.0,1.6745,-2.4905,-3.4969,0.3024,0.1171,-0.3757
7026.0,1.6745,-2.4905,-3.4969,0.3024,0.1171,-0.3757
7031.0,1.6745,-2.4905,-3.4969,0.3024,0.1171,-0.3757
7037.0,1.6745,-2.4905,-3.4969,0.3024,0.1171,-0.3757
7042.0,1.6745,-2.4905,-3.4969,0.052,0.4408,0.5772
7046.0,2.7425,-2.0615,-4.9708,0.052,0.4408,0.5772
7051.0,2.7425,-2.0615,-4.9708,0.052,0.4408,0.5772
7057.0,2.7425,-2.0615,-4.9708,0.052,0.4408,0.5772
7061.0,2.7425,-2.0615,-4.9708,0.052,0.4408,0.5772
7066.0,2.7425,-2.0615,-4.9708,0.052,0.4408,0.5772
7071.0,1.9523,-1.3036,-5.8001,-0.083,0.5374,1.4007
7077.0,1.9523,-1.3036,-5.8001,-0.083,0.5374,1.4007
7082.0,1.9523,-1.3036,-5.8001,-0.083,0.5374,1.4007
7087.0,1.9523,-1.3036,-5.8001,-0.083,0.5374,1.4007
7091.0,1.9523,-1.3036,-5.8001,-0.083,0.5374,1.4007
7096.0,1.9523,-1.3036,-5.8001,-0.083,0.5374,1.4007
7101.0,-1.9127,-4.3353,-7.8094,0.2652,0.8666,1.9822
7106.0,-1.9127,-4.3353,-7.8094,0.2652,0.8666,1.9822
7111.0,-1.9127,-4.3353,-7.8094,0.2652,0.8666,1.9822
7116.0,-1.9127,-4.3353,-7.8094,0.2652,0.8666,1.9822
7121.0,-1.9127,-4.3353,-7.8094,0.2652,0.8666,1.9822
7126.0,-1.5774,-4.3877,-7.9374,0.2652,0.8666,1.9822
7131.0,-1.5774,-4.3877,-7.9374,0.1363,1.4494,2.6035
7138.0,-1.5774,-4.3877,-7.9374,0.1363,1.4494,2.6035
7141.0,-1.5774,-4.3877,-7.9374,0.1363,1.4494,2.6035
7146.0,-1.5774,-4.3877,-7.9374,0.1363,1.4494,2.6035
7151.0,3.4513,-2.767,-4.4163,0.1363,1.4494,2.6035
7156.0,3.4513,-2.767,-4.4163,0.1363,1.4494,2.6035
7162.0,3.4513,-2.767,-4.4163,-0.9847,-0.189,3.8375
7167.0,3.4513,-2.767,-4.4163,-0.9847,-0.189,3.8375
7171.0,3.4513,-2.767,-4.4163,-0.9847,-0.189,3.8375
7176.0,3.4513,-2.767,-4.4163,-0.9847,-0.189,3.8375
7182.0,11.8324,-9.6217,-9.6198,-0.9847,-0.189,3.8375
7186.0,11.8324,-9.6217,-9.6198,-0.9847,-0.189,3.8375
7192.0,11.8324,-9.6217,-9.6198,-1.7073,0.2081,2.7984
7196.0,11.8324,-9.6217,-9.6198,-1.7073,0.2081,2.7984
7201.0,11.8324,-9.6217,-9.6198,-1.7073,0.2081,2.7984
7206.0,11.8324,-9.6217,-9.6198,-1.7073,0.2081,2.7984
7212.0,13.9636,-24.4941,-16.5862,-1.7073,0.2081,2.7984
7217.0,13.9636,-24.4941,-16.5862,-1.7073,0.2081,2.7984
7222.0,13.9636,-24.4941,-16.5862,-0.0427,-0.7326,1.5229
7226.0,13.9636,-24.4941,-16.5862,-0.0427,-0.7326,1.5229
7231.0,13.9636,-24.4941,-16.5862,-0.0427,-0.7326,1.5229
7236.0,13.9636,-24.4941,-16.5862,-0.0427,-0.7326,1.5229
7241.0,2.9724,-6.3612,-3.0325,-0.0427,-0.7326,1.5229
7246.0,2.9724,-6.3612,-3.0325,-0.0427,-0.7326,1.5229
7251.0,2.9724,-6.3612,-3.0325,-0.0427,-0.7326,1.5229
7257.0,2.9724,-6.3612,-3.0325,-0.554,-0.269,2.0329
7261.0,2.9724,-6.3612,-3.0325,-0.554,-0.269,2.0329
7266.0,1.5069,-0.9509,-0.5113,-0.554,-0.269,2.0329
7272.0,1.5069,-0.9509,-0.5113,-0.554,-0.269,2.0329
7276.0,1.5069,-0.9509,-0.5113,-0.554,-0.269,2.0329
7281.0,1.5069,-0.9509,-0.5113,-0.554,-0.269,2.0329
7286.0,1.5069,-0.9509,-0.5113,-0.9114,0.0682,2.7061
7291.0,1.5069,-0.9509,-0.5113,-0.9114,0.0682,2.7061
7296.0,1.6841,-4.1303,-0.5634,-0.9114,0.0682,2.7061
7301.0,1.6841,-4.1303,-0.5634,-0.9114,0.0682,2.7061
7306.0,1.6841,-4.1303,-0.5634,-0.9114,0.0682,2.7061
7311.0,1.6841,-4.1303,-0.5634,-0.9114,0.0682,2.7061
7316.0,1.6841,-4.1303,-0.5634,-0.9114,0.0682,2.7061
7322.0,4.0739,-9.3786,-0.2601,0.0819,0.0755,2.7049
7326.0,4.0739,-9.3786,-0.2601,0.0819,0.0755,2.7049
7331.0,4.0739,-9.3786,-0.2601,0.0819,0.0755,2.7049
7336.0,4.0739,-9.3786,-0.2601,0.0819,0.0755,2.7049
7341.0,4.0739,-9.3786,-0.2601,0.0819,0.0755,2.7049
7347.0,6.6218,-13.8498,-0.3928,0.0819,0.0755,2.7049
7352.0,6.6218,-13.8498,-0.3928,0.5871,0.2295,2.1918
7356.0,6.6218,-13.8498,-0.3928,0.5871,0.2295,2.1918
7362.0,6.6218,-13.8498,-0.3928,0.5871,0.2295,2.1918
7367.0,6.6218,-13.8498,-0.3928,0.5871,0.2295,2.1918
7372.0,3.9733,-14.2407,-1.1937,0.5871,0.2295,2.1918
7376.0,3.9733,-14.2407,-1.1937,0.5871,0.2295,2.1918
7381.0,3.9733,-14.2407,-1.1937,0.5871,0.2295,2.1918
7386.0,3.9733,-14.2407,-1.1937,-0.3365,0.7854,1.755
7391.0,3.9733,-14.2407,-1.1937,-0.3365,0.7854,1.755
7397.0,3.9733,-14.2407,-1.1937,-0.3365,0.7854,1.755
7401.0,0.2856,-9.3643,-2.895,-0.3365,0.7854,1.755
7407.0,0.2856,-9.3643,-2.895,-0.3365,0.7854,1.755
7411.0,0.2856,-9.3643,-2.895,-0.3365,0.7854,1.755
7417.0,0.2856,-9.3643,-2.895,-0.3042,1.0462,1.4612
7421.0,0.2856,-9.3643,-2.895,-0.3042,1.0462,1.4612
7428.0,0.2856,-9.3643,-2.895,-0.3042,1.0462,1.4612
7432.0,2.0672,-8.225,-2.26,-0.3042,1.0462,1.4612
7436.0,2.0672,-8.225,-2.26,-0.3042,1.0462,1.4612
7441.0,2.0672,-8.225,-2.26,-0.3042,1.0462,1.4612
7446.0,2.0672,-8.225,-2.26,0.0025,1.4274,0.7776
7451.0,2.0672,-8.225,-2.26,0.0025,1.4274,0.7776
7456.0,2.0672,-8.225,-2.26,0.0025,1.4274,0.7776
7461.0,3.8488,-8.94,-0.7103,0.0025,1.4274,0.7776
7466.0,3.8488,-8.94,-0.7103,0.0025,1.4274,0.7776
7471.0,3.8488,-8.94,-0.7103,0.0025,1.4274,0.7776
7476.0,3.8488,-8.94,-0.7103,0.1418,1.9912,0.4337
7481.0,3.8488,-8.94,-0.7103,0.1418,1.9912,0.4337
7487.0,4.2846,-7.8532,-2.0989,0.1418,1.9912,0.4337
7491.0,4.2846,-7.8532,-2.0989,0.1418,1.9912,0.4337
7496.0,4.2846,-7.8532,-2.0989,0.1418,1.9912,0.4337
7501.0,4.2846,-7.8532,-2.0989,0.1418,1.9912,0.4337
7506.0,4.2846,-7.8532,-2.0989,-0.0513,2.0102,0.1991
7511.0,3.5423,-7.4623,-1.8477,-0.0513,2.0102,0.1991
7516.0,3.5423,-7.4623,-1.8477,-0.0513,2.0102,0.1991
7521.0,3.5423,-7.4623,-1.8477,-0.0513,2.0102,0.1991
7526.0,3.5423,-7.4623,-1.8477,-0.0513,2.0102,0.1991
7532.0,3.5423,-7.4623,-1.8477,-0.0513,2.0102,0.1991
7536.0,3.5423,-7.4623,-1.8477,0.0196,1.2618,0.5052
7541.0,2.3067,-7.7292,-0.1464,0.0196,1.2618,0.5052
7546.0,2.3067,-7.7292,-0.1464,0.0196,1.2618,0.5052
7551.0,2.3067,-7.7292,-0.1464,0.0196,1.2618,0.5052
7556.0,2.3067,-7.7292,-0.1464,0.0196,1.2618,0.5052
7561.0,2.3067,-7.7292,-0.1464,0.0196,1.2618,0.5052
7566.0,1.957,-7.4575,0.2896,0.1357,0.224,0.9297
7571.0,1.957,-7.4575,0.2896,0.1357,0.224,0.9297
7577.0,1.957,-7.4575,0.2896,0.1357,0.224,0.9297
7581.0,1.957,-7.4575,0.2896,0.1357,0.224,0.9297
7587.0,1.957,-7.4575,0.2896,0.1357,0.224,0.9297
7591.0,1.957,-7.4575,0.2896,0.1357,0.224,0.9297
7596.0,1.7703,-7.8437,0.4555,0.2584,-0.6636,1.1557
7602.0,1.7703,-7.8437,0.4555,0.2584,-0.6636,1.1557
7606.0,1.7703,-7.8437,0.4555,0.2584,-0.6636,1.1557
7611.0,1.7703,-7.8437,0.4555,0.2584,-0.6636,1.1557
7616.0,1.7703,-7.8437,0.4555,0.2584,-0.6636,1.1557
7624.0,1.9858,-8.5873,0.8251,0.2584,-0.6636,1.1557
7626.0,1.9858,-8.5873,0.8251,0.5584,-0.9202,1.3317
7631.0,1.9858,-8.5873,0.8251,0.5584,-0.9202,1.3317
7637.0,1.9858,-8.5873,0.8251,0.5584,-0.9202,1.3317
7641.0,1.9858,-8.5873,0.8251,0.5584,-0.9202,1.3317
7648.0,3.0873,-9.717,2.3748,0.5584,-0.9202,1.3317
7651.0,3.0873,-9.717,2.3748,0.5584,-0.9202,1.3317
7656.0,3.0873,-9.717,2.3748,0.5584,-0.9202,1.3317
7661.0,3.0873,-9.717,2.3748,0.6989,1.5129,2.0739
7666.0,3.0873,-9.717,2.3748,0.6989,1.5129,2.0739
7671.0,3.0873,-9.717,2.3748,0.6989,1.5129,2.0739
7676.0,3.9158,-11.9526,0.2754,0.6989,1.5129,2.0739
7681.0,3.9158,-11.9526,0.2754,0.6989,1.5129,2.0739
7686.0,3.9158,-11.9526,0.2754,0.6989,1.5129,2.0739
7691.0,3.9158,-11.9526,0.2754,0.46,2.7499,2.0201
7696.0,3.9158,-11.9526,0.2754,0.46,2.7499,2.0201
7702.0,4.184,-13.0395,-11.6576,0.46,2.7499,2.0201
7706.0,4.184,-13.0395,-11.6576,0.46,2.7499,2.0201
7712.0,4.184,-13.0395,-11.6576,0.46,2.7499,2.0201
7717.0,4.184,-13.0395,-11.6576,0.46,2.7499,2.0201
7721.0,4.184,-13.0395,-11.6576,0.2029,2.4775,-1.5327
7726.0,4.275,-11.4998,-6.7953,0.2029,2.4775,-1.5327
7731.0,4.275,-11.4998,-6.7953,0.2029,2.4775,-1.5327
7737.0,4.275,-11.4998,-6.7953,0.2029,2.4775,-1.5327
7742.0,4.275,-11.4998,-6.7953,0.2029,2.4775,-1.5327
7746.0,4.275,-11.4998,-6.7953,0.2029,2.4775,-1.5327
7751.0,4.275,-11.4998,-6.7953,0.2322,0.4506,-0.4918
7757.0,5.1371,-10.6847,-2.7434,0.2322,0.4506,-0.4918
7761.0,5.1371,-10.6847,-2.7434,0.2322,0.4506,-0.4918
7766.0,5.1371,-10.6847,-2.7434,0.2322,0.4506,-0.4918
7771.0,5.1371,-10.6847,-2.7434,0.2322,0.4506,-0.4918
7776.0,5.1371,-10.6847,-2.7434,0.2322,0.4506,-0.4918
7781.0,5.525,-11.4331,-1.1558,0.2994,-1.8108,0.7679
7786.0,5.525,-11.4331,-1.1558,0.2994,-1.8108,0.7679
7791.0,5.525,-11.4331,-1.1558,0.2994,-1.8108,0.7679
7796.0,5.525,-11.4331,-1.1558,0.2994,-1.8108,0.7679
7802.0,5.525,-11.4331,-1.1558,0.2994,-1.8108,0.7679
7806.0,5.525,-11.4331,-1.1558,0.2994,-1.8108,0.7679
7811.0,5.4245,-13.8546,0.2564,0.212,-2.2213,-0.1924
7816.0,5.4245,-13.8546,0.2564,0.212,-2.2213,-0.1924
7821.0,5.4245,-13.8546,0.2564,0.212,-2.2213,-0.1924
7826.0,5.4245,-13.8546,0.2564,0.212,-2.2213,-0.1924
7831.0,5.4245,-13.8546,0.2564,0.212,-2.2213,-0.1924
7836.0,5.6783,-14.4838,2.3321,0.212,-2.2213,-0.1924
7841.0,5.6783,-14.4838,2.3321,0.212,-2.2213,-0.1924
7846.0,5.6783,-14.4838,2.3321,0.0392,-1.7332,-1.2144
7851.0,5.6783,-14.4838,2.3321,0.0392,-1.7332,-1.2144
7856.0,5.6783,-14.4838,2.3321,0.0392,-1.7332,-1.2144
7861.0,5.1131,-12.8154,2.825,0.0392,-1.7332,-1.2144
7866.0,5.1131,-12.8154,2.825,0.0392,-1.7332,-1.2144
7871.0,5.1131,-12.8154,2.825,0.0392,-1.7332,-1.2144
7877.0,5.1131,-12.8154,2.825,0.0392,-1.7332,-1.2144
7881.0,5.1131,-12.8154,2.825,0.0098,-0.4718,-1.5431
7886.0,5.1131,-8.716,1.4649,0.0098,-0.4718,-1.5431
7891.0,4.8162,-8.716,1.4649,0.0098,-0.4718,-1.5431
7896.0,4.8162,-8.716,1.4649,0.0098,-0.4718,-1.5431
7901.0,4.8162,-8.716,1.4649,0.0098,-0.4718,-1.5431
7906.0,4.8162,-8.716,1.4649,0.0098,-0.4718,-1.5431
7911.0,4.8162,-8.716,1.4649,-0.2999,0.1244,-1.4789
7916.0,5.3909,-7.9819,0.0289,-0.2999,0.1244,-1.4789
7921.0,5.3909,-7.9819,0.0289,-0.2999,0.1244,-1.4789
7926.0,5.3909,-7.9819,0.0289,-0.2999,0.1244,-1.4789
7931.0,5.3909,-7.9819,0.0289,-0.2999,0.1244,-1.4789
7937.0,5.3909,-7.9819,0.0289,-0.2999,0.1244,-1.4789
7941.0,4.5911,-11.6142,-6.2314,-0.2999,0.1244,-1.4789
7946.0,4.5911,-11.6142,-6.2314,-0.6951,2.428,-3.1039
7951.0,4.5911,-11.6142,-6.2314,-0.6951,2.428,-3.1039
7956.0,4.5911,-11.6142,-6.2314,-0.6951,2.428,-3.1039
7961.0,4.5911,-11.6142,-6.2314,-0.6951,2.428,-3.1039
7966.0,4.5911,-11.6142,-6.2314,-0.6951,2.428,-3.1039
7971.0,5.3047,-12.4675,-9.8235,-0.6951,2.428,-3.1039
7976.0,5.3047,-12.4675,-9.8235,-1.0744,-0.3533,-5.5431
7981.0,5.3047,-12.4675,-9.8235,-1.0744,-0.3533,-5.5431
7992.0,5.3047,-12.4675,-9.8235,-1.0744,-0.3533,-5.5431
7994.0,6.4733,-10.3176,-5.0466,-1.0744,-0.3533,-5.5431
7996.0,6.4733,-10.3176,-5.0466,-1.0744,-0.3533,-5.5431
8001.0,6.4733,-10.3176,-5.0466,-1.0744,-0.3533,-5.5431
8006.0,6.4733,-10.3176,-5.0466,-1.1618,-2.9855,-4.2761
8011.0,6.4733,-10.3176,-5.0466,-1.1618,-2.9855,-4.2761
8016.0,6.4733,-10.3176,-5.0466,-1.1618,-2.9855,-4.2761
8021.0,5.3335,-9.1498,3.1093,-1.1618,-2.9855,-4.2761
8026.0,5.3335,-9.1498,3.1093,-1.1618,-2.9855,-4.2761
8031.0,5.3335,-9.1498,3.1093,-1.1618,-2.9855,-4.2761
8037.0,5.3335,-9.1498,3.1093,-0.9419,-2.8041,-1.2474
8042.0,5.3335,-9.1498,3.1093,-0.9419,-2.8041,-1.2474
8046.0,3.4273,-9.2737,3.7065,-0.9419,-2.8041,-1.2474
8051.0,3.4273,-9.2737,3.7065,-0.9419,-2.8041,-1.2474
8056.0,3.4273,-9.2737,3.7065,-0.9419,-2.8041,-1.2474
8061.0,3.4273,-9.2737,3.7065,-0.9419,-2.8041,-1.2474
8066.0,3.4273,-9.2737,3.7065,0.0135,-2.9855,0.0586
8071.0,3.4273,-9.2737,3.7065,0.0135,-2.9855,0.0586
8076.0,0.1276,-13.7259,-8.5867,0.0135,-2.9855,0.0586
8081.0,0.1276,-13.7259,-8.5867,0.0135,-2.9855,0.0586
8086.0,0.1276,-13.7259,-8.5867,0.0135,-2.9855,0.0586
8091.0,0.1276,-13.7259,-8.5867,0.0135,-2.9855,0.0586
8096.0,0.1276,-13.7259,-8.5867,1.0043,-3.0032,-2.0935
8101.0,2.4264,-10.7038,-0.4307,1.0043,-3.0032,-2.0935
8109.0,2.4264,-10.7038,-0.4307,1.0043,-3.0032,-2.0935
8112.0,2.4264,-10.7038,-0.4307,1.0043,-3.0032,-2.0935
8116.0,2.4264,-10.7038,-0.4307,1.0043,-3.0032,-2.0935
8121.0,2.4264,-10.7038,-0.4307,1.0043,-3.0032,-2.0935
8126.0,2.4839,-8.7446,-1.0373,1.0043,-3.0032,-2.0935
8131.0,2.4839,-8.7446,-1.0373,0.5731,0.8251,-3.4496
8136.0,2.4839,-8.7446,-1.0373,0.5731,0.8251,-3.4496
8142.0,2.4839,-8.7446,-1.0373,0.5731,0.8251,-3.4496
8147.0,2.4839,-8.7446,-1.0373,0.5731,0.8251,-3.4496
8151.0,2.4839,-8.7446,-1.0373,0.5731,0.8251,-3.4496
8156.0,3.322,-6.5471,-3.2836,0.5731,0.8251,-3.4496
8161.0,3.322,-6.5471,-3.2836,0.4662,0.301,-4.4172
8166.0,3.322,-6.5471,-3.2836,0.4662,0.301,-4.4172
8171.0,3.322,-6.5471,-3.2836,0.4662,0.301,-4.4172
8176.0,3.322,-6.5471,-3.2836,0.4662,0.301,-4.4172
8181.0,4.1601,-4.3305,-2.1036,0.4662,0.301,-4.4172
8187.0,4.1601,-4.3305,-2.1036,0.4258,-0.0136,-4.642
8191.0,4.1601,-4.3305,-2.1036,0.4258,-0.0136,-4.642
8197.0,4.1601,-4.3305,-2.1036,0.4258,-0.0136,-4.642
8201.0,4.1601,-4.3305,-2.1036,0.4258,-0.0136,-4.642
8206.0,3.9685,-2.972,-1.1985,0.4258,-0.0136,-4.642
8211.0,3.9685,-2.972,-1.1985,0.4258,-0.0136,-4.642
8217.0,3.9685,-2.972,-1.1985,0.4258,-0.0136,-4.642
8221.0,3.9685,-2.972,-1.1985,0.1057,0.5697,-3.0171
8226.0,3.9685,-2.972,-1.1985,0.1057,0.5697,-3.0171
8231.0,3.9685,-2.972,-1.1985,0.1057,0.5697,-3.0171
8236.0,0.9513,-1.2178,-1.6487,0.1057,0.5697,-3.0171
8241.0,0.9513,-1.2178,-1.6487,0.1057,0.5697,-3.0171
8246.0,0.9513,-1.2178,-1.6487,0.1057,0.5697,-3.0171
8251.0,0.9513,-1.2178,-1.6487,0.2701,0.1189,-1.0305
8256.0,0.9513,-1.2178,-3.0846,0.2701,0.1189,-1.0305
8261.0,-0.0353,-1.4895,-3.0846,0.2701,0.1189,-1.0305
8266.0,-0.0353,-1.4895,-3.0846,0.2701,0.1189,-1.0305
8271.0,-0.0353,-1.4895,-3.0846,0.2701,0.1189,-1.0305
8277.0,-0.0353,-1.4895,-3.0846,0.2701,0.1189,-1.0305
8281.0,-0.0353,-1.4895,-3.0846,0.4228,0.2771,0.0757
8286.0,0.5538,-2.3761,-3.5111,0.4228,0.2771,0.0757
8291.0,0.5538,-2.3761,-3.5111,0.4228,0.2771,0.0757
8297.0,0.5538,-2.3761,-3.5111,0.4228,0.2771,0.0757
8301.0,0.5538,-2.3761,-3.5111,0.4228,0.2771,0.0757
8306.0,0.5538,-2.3761,-3.5111,0.4228,0.2771,0.0757
8311.0,2.1007,-0.3931,-4.2552,0.4228,0.2771,0.0757
8317.0,2.1007,-0.3931,-4.2552,0.3959,0.6559,0.7122
8321.0,2.1007,-0.3931,-4.2552,0.3959,0.6559,0.7122
8326.0,2.1007,-0.3931,-4.2552,0.3959,0.6559,0.7122
8331.0,2.1007,-0.3931,-4.2552,0.3959,0.6559,0.7122
8336.0,2.1007,-0.3931,-4.2552,0.3959,0.6559,0.7122
8341.0,0.9274,-1.0414,-5.7811,0.3959,0.6559,0.7122
8346.0,0.9274,-1.0414,-5.7811,0.4045,0.9088,1.8845
8351.0,0.9274,-1.0414,-5.7811,0.4045,0.9088,1.8845
8356.0,0.9274,-1.0414,-5.7811,0.4045,0.9088,1.8845
8361.0,0.9274,-1.0414,-5.7811,0.4045,0.9088,1.8845
8368.0,-1.6588,-5.1409,-8.9089,0.4045,0.9088,1.8845
8371.0,-1.6588,-5.1409,-8.9089,0.4045,0.9088,1.8845
8376.0,-1.6588,-5.1409,-8.9089,0.7221,1.4793,2.4129
8381.0,-1.6588,-5.1409,-8.9089,0.7221,1.4793,2.4129
8386.0,-1.6588,-5.1409,-8.9089,0.7221,1.4793,2.4129
8391.0,-0.9883,-5.9369,-12.7523,0.7221,1.4793,2.4129
8396.0,-0.9883,-5.9369,-12.7523,0.7221,1.4793,2.4129
8401.0,-0.9883,-5.9369,-12.7523,0.7221,1.4793,2.4129
8406.0,-0.9883,-5.9369,-12.7523,0.2322,1.4378,2.6359
8411.0,-0.9883,-5.9369,-12.7523,0.2322,1.4378,2.6359
8417.0,-0.9883,-5.9369,-12.7523,0.2322,1.4378,2.6359
8421.0,9.1696,-5.1075,-3.5016,0.2322,1.4378,2.6359
8426.0,9.1696,-5.1075,-3.5016,0.2322,1.4378,2.6359
8431.0,9.1696,-5.1075,-3.5016,0.2322,1.4378,2.6359
8436.0,9.1696,-5.1075,-3.5016,-1.7348,-1.4553,3.8423
8441.0,9.1696,-5.1075,-3.5016,-1.7348,-1.4553,3.8423
8447.0,9.1696,-5.1075,-3.5016,-1.7348,-1.4553,3.8423
8451.0,17.3592,-18.364,-8.3923,-1.7348,-1.4553,3.8423
8456.0,17.3592,-18.364,-8.3923,-1.7348,-1.4553,3.8423
8461.0,17.3592,-18.364,-8.3923,-1.7348,-1.4553,3.8423
8466.0,17.3592,-18.364,-8.3923,-0.5601,-0.1541,1.0525
8472.0,17.3592,-18.364,-8.3923,-0.5601,-0.1541,1.0525
8476.0,12.479,-14.5124,-8.0796,-0.5601,-0.1541,1.0525
8481.0,12.479,-14.5124,-8.0796,-0.5601,-0.1541,1.0525
8487.0,12.479,-14.5124,-8.0796,-0.5601,-0.1541,1.0525
8492.0,12.479,-14.5124,-8.0796,-0.5601,-0.1541,1.0525
8497.0,12.479,-14.5124,-8.0796,-0.1966,-0.057,1.5259
8501.0,12.479,-14.5124,-8.0796,-0.1966,-0.057,1.5259
8506.0,1.8134,-1.6277,-0.6914,-0.1966,-0.057,1.5259
8511.0,1.8134,-1.6277,-0.6914,-0.1966,-0.057,1.5259
8516.0,1.8134,-1.6277,-0.6914,-0.1966,-0.057,1.5259
8521.0,1.8134,-1.6277,-0.6914,-0.1966,-0.057,1.5259
8526.0,1.8134,-1.6277,-0.6914,-0.8863,-0.0558,3.2663
8531.0,0.6208,-1.2226,0.1664,-0.8863,-0.0558,3.2663
8536.0,0.6208,-1.2226,0.1664,-0.8863,-0.0558,3.2663
8541.0,0.6208,-1.2226,0.1664,-0.8863,-0.0558,3.2663
8546.0,0.6208,-1.2226,0.1664,-0.8863,-0.0558,3.2663
8551.0,0.6208,-1.2226,0.1664,-0.8863,-0.0558,3.2663
8556.0,0.8603,-4.7834,0.0195,-0.7782,-0.9672,4.0164
8561.0,0.8603,-4.7834,0.0195,-0.7782,-0.9672,4.0164
8566.0,0.8603,-4.7834,0.0195,-0.7782,-0.9672,4.0164
8572.0,0.8603,-4.7834,0.0195,-0.7782,-0.9672,4.0164
8577.0,0.8603,-4.7834,0.0195,-0.7782,-0.9672,4.0164
8581.0,0.8603,-4.7834,0.0195,-0.7782,-0.9672,4.0164
8590.0,4.5959,-9.493,0.6592,0.5859,-0.8071,3.4948
8591.0,4.5959,-9.493,0.6592,0.5859,-0.8071,3.4948
8596.0,4.5959,-9.493,0.6592,0.5859,-0.8071,3.4948
8601.0,4.5959,-9.493,0.6592,0.5859,-0.8071,3.4948
8606.0,4.5959,-9.493,0.6592,0.5859,-0.8071,3.4948
8611.0,7.934,-14.4838,-0.4544,0.5859,-0.8071,3.4948
8616.0,7.934,-14.4838,-0.4544,0.5859,-0.8071,3.4948
8621.0,7.934,-14.4838,-0.4544,0.5975,-0.2427,2.3665
8626.0,7.934,-14.4838,-0.4544,0.5975,-0.2427,2.3665
8631.0,7.934,-14.4838,-0.4544,0.5975,-0.2427,2.3665
8636.0,1.7655,-13.7497,-2.3311,0.5975,-0.2427,2.3665
8641.0,1.7655,-13.7497,-2.3311,0.5975,-0.2427,2.3665
8646.0,1.7655,-13.7497,-2.3311,0.5975,-0.2427,2.3665
8651.0,1.7655,-13.7497,-2.3311,-0.3041,0.9222,1.8845
8656.0,1.7655,-13.7497,-2.3311,-0.3041,0.9222,1.8845
8661.0,1.7655,-13.7497,-2.3311,-0.3041,0.9222,1.8845
8666.0,-0.1837,-8.6492,-3.568,-0.3041,0.9222,1.8845
8671.0,-0.1837,-8.6492,-3.568,-0.3041,0.9222,1.8845
8676.0,-0.1837,-8.6492,-3.568,-0.3041,0.9222,1.8845
8681.0,-0.1837,-8.6492,-3.568,-0.375,0.3181,1.3433
8686.0,-0.1837,-8.6492,-3.568,-0.375,0.3181,1.3433
8691.0,1.0327,-7.0667,-1.3359,-0.375,0.3181,1.3433
8697.0,1.0327,-7.0667,-1.3359,-0.375,0.3181,1.3433
8701.0,1.0327,-7.0667,-1.3359,-0.375,0.3181,1.3433
8707.0,1.0327,-7.0667,-1.3359,-0.375,0.3181,1.3433
8711.0,1.0327,-7.0667,-1.3359,-0.243,0.9155,0.8198
8716.0,1.0327,-7.0667,-1.3359,-0.243,0.9155,0.8198
8721.0,1.8708,-6.7139,0.3275,-0.243,0.9155,0.8198
8726.0,1.8708,-6.7139,0.3275,-0.243,0.9155,0.8198
8731.0,1.8708,-6.7139,0.3275,-0.243,0.9155,0.8198
8737.0,1.8708,-6.7139,0.3275,-0.243,0.9155,0.8198
8741.0,1.8708,-6.7139,0.3275,-0.243,0.9155,0.8198
8746.0,2.5796,-7.1715,0.1095,-0.1019,2.3113,0.7214
8753.0,2.5796,-7.1715,0.1095,-0.1019,2.3113,0.7214
8756.0,2.5796,-7.1715,0.1095,-0.1019,2.3113,0.7214
8761.0,2.5796,-7.1715,0.1095,-0.1019,2.3113,0.7214
8767.0,2.5796,-7.1715,0.1095,-0.1019,2.3113,0.7214
8771.0,2.3258,-7.6673,-0.208,-0.1019,2.3113,0.7214
8776.0,2.3258,-7.6673,-0.208,-0.1331,2.7451,0.7697
8781.0,2.3258,-7.6673,-0.208,-0.1331,2.7451,0.7697
8786.0,2.3258,-7.6673,-0.208,-0.1331,2.7451,0.7697
8791.0,2.3258,-7.6673,-0.208,-0.1331,2.7451,0.7697
8796.0,1.8277,-7.224,0.1948,-0.1331,2.7451,0.7697
8802.0,1.8277,-7.224,0.1948,-0.1331,2.7451,0.7697
8806.0,1.8277,-7.224,0.1948,-0.064,2.1568,0.7465
8813.0,1.8277,-7.224,0.1948,-0.064,2.1568,0.7465
8816.0,1.8277,-7.224,0.1948,-0.064,2.1568,0.7465
8821.0,1.8277,-7.224,0.1948,-0.064,2.1568,0.7465
8827.0,1.4398,-6.3945,0.1711,-0.064,2.1568,0.7465
8832.0,1.4398,-6.3945,0.1711,-0.064,2.1568,0.7465
8836.0,1.4398,-6.3945,0.1711,0.2634,1.0988,0.8601
8842.0,1.4398,-6.3945,0.1711,0.2634,1.0988,0.8601
8847.0,1.4398,-6.3945,0.1711,0.2634,1.0988,0.8601
8851.0,1.4398,-6.3945,0.1711,0.2634,1.0988,0.8601
8856.0,1.9714,-8.0248,0.1806,0.2634,1.0988,0.8601
8861.0,1.9714,-8.0248,0.1806,0.2634,1.0988,0.8601
8866.0,1.9714,-8.0248,0.1806,0.873,-0.7039,1.1393
8871.0,1.9714,-8.0248,0.1806,0.873,-0.7039,1.1393
8876.0,1.9714,-8.0248,0.1806,0.873,-0.7039,1.1393
8881.0,1.9714,-8.0248,0.1806,0.873,-0.7039,1.1393
8887.0,5.367,-12.9823,0.1759,0.873,-0.7039,1.1393
8892.0,5.367,-12.9823,0.1759,0.873,-0.7039,1.1393
8896.0,5.367,-12.9823,0.1759,0.873,-0.7039,1.1393
8901.0,5.367,-12.9823,0.1759,1.2255,-2.8847,1.3598
8906.0,5.367,-12.9823,0.1759,1.2255,-2.8847,1.3598
8911.0,7.9484,-14.5124,6.6873,1.2255,-2.8847,1.3598
8916.0,7.9484,-14.5124,6.6873,1.2255,-2.8847,1.3598
8921.0,7.9484,-14.5124,6.6873,1.2255,-2.8847,1.3598
8926.0,7.9484,-14.5124,6.6873,1.2255,-2.8847,1.3598
8931.0,7.9484,-14.5124,6.6873,0.2414,2.6632,0.3243
8937.0,6.4062,-9.8171,-7.127,0.2414,2.6632,0.3243
8941.0,6.4062,-9.8171,-7.127,0.2414,2.6632,0.3243
8946.0,6.4062,-9.8171,-7.127,0.2414,2.6632,0.3243
8951.0,6.4062,-9.8171,-7.127,0.2414,2.6632,0.3243
8957.0,6.4062,-9.8171,-7.127,0.2414,2.6632,0.3243
8962.0,6.4062,-9.8171,-7.127,-0.6108,-1.9281,-0.427
8967.0,6.4062,-9.8171,-7.127,-0.6108,-1.9281,-0.427
8972.0,6.4062,-9.8171,-7.127,-0.6108,-1.9281,-0.427
8976.0,4.1218,-11.0517,1.8108,-0.6108,-1.9281,-0.427
8981.0,4.1218,-11.0517,1.8108,-0.6108,-1.9281,-0.427
8986.0,4.1218,-11.0517,1.8108,-0.6108,-1.9281,-0.427
8991.0,4.1218,-11.0517,1.8108,0.1901,-2.2653,0.4361
8997.0,4.1218,-11.0517,1.8108,0.1901,-2.2653,0.4361
9002.0,3.8584,-10.1699,3.4885,0.1901,-2.2653,0.4361
9007.0,3.8584,-10.1699,3.4885,0.1901,-2.2653,0.4361
9011.0,3.8584,-10.1699,3.4885,0.1901,-2.2653,0.4361
9016.0,3.8584,-10.1699,3.4885,0.1901,-2.2653,0.4361
9021.0,3.8584,-10.1699,3.4885,0.1901,-2.2653,0.4361
9026.0,2.2396,-10.6561,1.9909,-0.0689,0.1085,0.6676
9031.0,2.2396,-10.6561,1.9909,-0.0689,0.1085,0.6676
9036.0,2.2396,-10.6561,1.9909,-0.0689,0.1085,0.6676
9041.0,2.2396,-10.6561,1.9909,-0.0689,0.1085,0.6676
9046.0,2.2396,-10.6561,1.9909,-0.0689,0.1085,0.6676
9052.0,2.1199,-9.3786,1.0384,-0.0689,0.1085,0.6676
9056.0,2.1199,-9.3786,1.0384,0.2029,0.0731,0.0293
9061.0,2.1199,-9.3786,1.0384,0.2029,0.0731,0.0293
9066.0,2.1199,-9.3786,1.0384,0.2029,0.0731,0.0293
9071.0,2.1199,-9.3786,1.0384,0.2029,0.0731,0.0293
9076.0,2.1199,-9.3786,1.0384,0.2029,0.0731,0.0293
9081.0,2.2492,-10.8468,2.7776,0.2029,0.0731,0.0293
9086.0,2.2492,-10.8468,2.7776,-0.1655,3.4237,0.9829
9091.0,2.2492,-10.8468,2.7776,-0.1655,3.4237,0.9829
9096.0,2.2492,-10.8468,2.7776,-0.1655,3.4237,0.9829
9101.0,2.2492,-10.8468,2.7776,-0.1655,3.4237,0.9829
9106.0,4.572,-10.923,-1.5349,-0.1655,3.4237,0.9829
9111.0,4.572,-10.923,-1.5349,-0.1655,3.4237,0.9829
9116.0,4.572,-10.923,-1.5349,0.0496,3.7518,-0.1442
9121.0,4.572,-10.923,-1.5349,0.0496,3.7518,-0.1442
9126.0,4.572,-10.923,-1.5349,0.0496,3.7518,-0.1442
9131.0,6.1285,-10.7276,-5.094,0.0496,3.7518,-0.1442
9136.0,6.1285,-10.7276,-5.094,0.0496,3.7518,-0.1442
9141.0,6.1285,-10.7276,-5.094,0.0496,3.7518,-0.1442
9147.0,6.1285,-10.7276,-5.094,-0.5955,0.7775,-1.5449
9152.0,6.1285,-10.7276,-5.094,-0.5955,0.7775,-1.5449
9156.0,4.4331,-12.5485,-0.8004,-0.5955,0.7775,-1.5449
9161.0,4.4331,-12.5485,-0.8004,-0.5955,0.7775,-1.5449
9166.0,4.4331,-12.5485,-0.8004,-0.5955,0.7775,-1.5449
9171.0,4.4331,-12.5485,-0.8004,-0.5955,0.7775,-1.5449
9176.0,4.4331,-12.5485,-0.8004,-0.5955,0.7775,-1.5449
9181.0,4.4331,-12.5485,-0.8004,-0.1868,-1.7345,-1.2034
9186.0,4.3133,-14.6793,1.863,-0.1868,-1.7345,-1.2034
9191.0,4.3133,-14.6793,1.863,-0.1868,-1.7345,-1.2034
9196.0,4.3133,-14.6793,1.863,-0.1868,-1.7345,-1.2034
9201.0,4.3133,-14.6793,1.863,-0.1868,-1.7345,-1.2034
9206.0,4.3133,-14.6793,1.863,-0.1868,-1.7345,-1.2034
9211.0,5.7932,-14.112,2.1521,0.2084,-1.7143,-0.2975
9216.0,5.7932,-14.112,2.1521,0.2084,-1.7143,-0.2975
9221.0,5.7932,-14.112,2.1521,0.2084,-1.7143,-0.2975
9226.0,5.7932,-14.112,2.1521,0.2084,-1.7143,-0.2975
9231.0,5.7932,-14.112,2.1521,0.2084,-1.7143,-0.2975
9236.0,6.593,-8.9925,1.6592,0.2084,-1.7143,-0.2975
9241.0,6.593,-8.9925,1.6592,0.1565,-1.1327,0.3879
9248.0,6.593,-8.9925,1.6592,0.1565,-1.1327,0.3879
9251.0,6.593,-8.9925,1.6592,0.1565,-1.1327,0.3879
9256.0,6.593,-8.9925,1.6592,0.1565,-1.1327,0.3879
9261.0,6.593,-8.9925,1.6592,0.1565,-1.1327,0.3879
9266.0,4.0691,-5.813,-0.6108,0.1565,-1.1327,0.3879
9271.0,4.0691,-5.813,-0.6108,-0.0457,0.5917,-0.0672
9277.0,4.0691,-5.813,-0.6108,-0.0457,0.5917,-0.0672
9281.0,4.0691,-5.813,-0.6108,-0.0457,0.5917,-0.0672
9286.0,4.0691,-5.813,-0.6108,-0.0457,0.5917,-0.0672
9291.0,2.2061,-7.653,-3.8429,-0.0457,0.5917,-0.0672
9296.0,2.2061,-7.653,-3.8429,-0.0457,0.5917,-0.0672
9301.0,2.2061,-7.653,-3.8429,-0.3628,0.1922,-2.1295
9306.0,2.2061,-7.653,-3.8429,-0.3628,0.1922,-2.1295
9311.0,2.2061,-7.653,-3.8429,-0.3628,0.1922,-2.1295
9316.0,2.1007,-11.0803,-4.421,-0.3628,0.1922,-2.1295
9321.0,2.1007,-11.0803,-4.421,-0.3628,0.1922,-2.1295
9326.0,2.1007,-11.0803,-4.421,-0.3628,0.1922,-2.1295
9331.0,2.1007,-11.0803,-4.421,-0.3628,0.1922,-2.1295
9336.0,2.1007,-11.0803,-4.421,-0.3274,-1.0631,-4.4698
9341.0,2.5749,-13.764,-4.0609,-0.3274,-1.0631,-4.4698
9347.0,2.5749,-13.764,-4.0609,-0.3274,-1.0631,-4.4698
9351.0,2.5749,-13.764,-4.0609,-0.3274,-1.0631,-4.4698
9356.0,2.5749,-13.764,-4.0609,-0.3274,-1.0631,-4.4698
9361.0,2.5749,-13.764,-4.0609,-0.3274,-1.0631,-4.4698
9366.0,2.5749,-13.764,-4.0609,-0.5406,0.114,-4.9902
9372.0,3.14,-12.682,-2.5633,-0.5406,0.114,-4.9902
9376.0,3.14,-12.682,-2.5633,-0.5406,0.114,-4.9902
9381.0,3.14,-12.682,-2.5633,-0.5406,0.114,-4.9902
9387.0,3.14,-12.682,-2.5633,-0.5406,0.114,-4.9902
9391.0,3.14,-12.682,-2.5633,-0.5406,0.114,-4.9902
9396.0,5.9081,-8.6445,1.8724,-0.5406,0.114,-4.9902
9401.0,5.9081,-8.6445,1.8724,-0.6853,-2.5536,-1.6738
9406.0,5.9081,-8.6445,1.8724,-0.6853,-2.5536,-1.6738
9411.0,5.9081,-8.6445,1.8724,-0.6853,-2.5536,-1.6738
9417.0,5.9081,-8.6445,1.8724,-0.6853,-2.5536,-1.6738
9421.0,5.9081,-8.6445,1.8724,-0.6853,-2.5536,-1.6738
9426.0,5.2808,-7.2907,3.0904,-0.6853,-2.5536,-1.6738
9433.0,5.2808,-7.2907,3.0904,-0.4465,-3.9018,-0.102
9436.0,5.2808,-7.2907,3.0904,-0.4465,-3.9018,-0.102
9441.0,5.2808,-7.2907,3.0904,-0.4465,-3.9018,-0.102
9446.0,5.2808,-7.2907,3.0904,-0.4465,-3.9018,-0.102
9451.0,3.9111,-7.3145,2.2516,-0.4465,-3.9018,-0.102
9457.0,3.9111,-7.3145,2.2516,-0.4465,-3.9018,-0.102
9461.0,3.9111,-7.3145,2.2516,0.4496,-0.1572,-1.6152
9466.0,3.9111,-7.3145,2.2516,0.4496,-0.1572,-1.6152
9471.0,3.9111,-7.3145,2.2516,0.4496,-0.1572,-1.6152
9476.0,3.9111,-7.3145,2.2516,0.4496,-0.1572,-1.6152
9481.0,3.3028,-9.1259,-4.8144,0.4496,-0.1572,-1.6152
9487.0,3.3028,-9.1259,-4.8144,0.4496,-0.1572,-1.6152
9492.0,3.3028,-9.1259,-4.8144,0.4496,-0.1572,-1.6152
9497.0,3.3028,-9.1259,-4.8144,0.3666,-0.44,-4.1943
9501.0,3.3028,-9.1259,-4.8144,0.3666,-0.44,-4.1943
9506.0,4.2032,-9.8314,-3.6296,0.3666,-0.44,-4.1943
9511.0,4.2032,-9.8314,-3.6296,0.3666,-0.44,-4.1943
9517.0,4.2032,-9.8314,-3.6296,0.3666,-0.44,-4.1943
9521.0,4.2032,-9.8314,-3.6296,0.3666,-0.44,-4.1943
9526.0,4.2032,-9.8314,-3.6296,-0.3084,0.1696,-4.8326
9531.0,5.4963,-9.064,-3.4211,-0.3084,0.1696,-4.8326
9537.0,5.4963,-9.064,-3.4211,-0.3084,0.1696,-4.8326
9541.0,5.4963,-9.064,-3.4211,-0.3084,0.1696,-4.8326
9547.0,5.4963,-9.064,-3.4211,-0.3084,0.1696,-4.8326
9551.0,5.4963,-9.064,-3.4211,-0.3084,0.1696,-4.8326
9556.0,5.3909,-8.163,-3.6059,-0.2675,-0.5463,-3.7972
9561.0,5.3909,-8.163,-3.6059,-0.2675,-0.5463,-3.7972
9566.0,5.3909,-8.163,-3.6059,-0.2675,-0.5463,-3.7972
9571.0,5.3909,-8.163,-3.6059,-0.2675,-0.5463,-3.7972
9577.0,5.3909,-8.163,-3.6059,-0.2675,-0.5463,-3.7972
9581.0,5.3909,-8.163,-3.6059,-0.2675,-0.5463,-3.7972
9586.0,4.2942,-5.9798,-3.0799,0.176,-1.5426,-2.4582
9591.0,4.2942,-5.9798,-3.0799,0.176,-1.5426,-2.4582
9596.0,4.2942,-5.9798,-3.0799,0.176,-1.5426,-2.4582
9601.0,4.2942,-5.9798,-3.0799,0.176,-1.5426,-2.4582
9606.0,4.2942,-5.9798,-3.0799,0.176,-1.5426,-2.4582
9611.0,2.4551,-4.4497,-2.824,0.176,-1.5426,-2.4582
9616.0,2.4551,-4.4497,-2.824,0.4307,-1.1425,-1.6262
9621.0,2.4551,-4.4497,-2.824,0.4307,-1.1425,-1.6262
9626.0,2.4551,-4.4497,-2.824,0.4307,-1.1425,-1.6262
9632.0,2.4551,-4.4497,-2.824,0.4307,-1.1425,-1.6262
9636.0,2.4551,-4.4497,-2.824,0.4307,-1.1425,-1.6262
9641.0,1.2387,-3.9206,-3.4211,0.4307,-1.1425,-1.6262
9646.0,1.2387,-3.9206,-3.4211,0.198,-0.3618,-1.2493
9651.0,1.2387,-3.9206,-3.4211,0.198,-0.3618,-1.2493
9656.0,1.2387,-3.9206,-3.4211,0.198,-0.3618,-1.2493
9661.0,1.2387,-3.9206,-3.4211,0.198,-0.3618,-1.2493
9666.0,0.9561,-4.035,-3.8381,0.198,-0.3618,-1.2493
9671.0,0.9561,-4.035,-3.8381,0.198,-0.3618,-1.2493
9676.0,0.9561,-4.035,-3.8381,0.1112,-0.0869,-0.7838
9681.0,0.9561,-4.035,-3.8381,0.1112,-0.0869,-0.7838
9686.0,0.9561,-4.035,-3.8381,0.1112,-0.0869,-0.7838
9691.0,1.6409,-3.8777,-3.5396,0.1112,-0.0869,-0.7838
9696.0,1.6409,-3.8777,-3.5396,0.1112,-0.0869,-0.7838
9701.0,1.6409,-3.8777,-3.5396,0.1112,-0.0869,-0.7838
9706.0,1.6409,-3.8777,-3.5396,0.1112,-0.0869,-0.7838
9711.0,1.6409,-3.8777,-3.5396,0.1894,0.0364,-0.1118
9716.0,1.6409,-1.9328,-3.7907,0.1894,0.0364,-0.1118
9722.0,1.6409,-1.9328,-3.7907,0.1894,0.0364,-0.1118
9726.0,1.6409,-1.9328,-3.7907,0.1894,0.0364,-0.1118
9731.0,1.6409,-1.9328,-3.7907,0.1894,0.0364,-0.1118
9736.0,1.6409,-1.9328,-3.7907,0.1894,0.0364,-0.1118
9742.0,1.6409,-1.9328,-3.7907,0.3605,0.428,0.5155
9746.0,-0.5477,-1.0271,-5.0134,0.3605,0.428,0.5155
9751.0,-0.5477,-1.0271,-5.0134,0.3605,0.428,0.5155
9756.0,-0.5477,-1.0271,-5.0134,0.3605,0.428,0.5155
9761.0,-0.5477,-1.0271,-5.0134,0.3605,0.428,0.5155
9767.0,-0.5477,-1.0271,-5.0134,0.3605,0.428,0.5155
9771.0,-0.8015,-1.2702,-6.255,0.4888,0.7457,1.2052
9776.0,-0.8015,-1.2702,-6.255,0.4888,0.7457,1.2052
9781.0,-0.8015,-1.2702,-6.255,0.4888,0.7457,1.2052
9787.0,-0.8015,-1.2702,-6.255,0.4888,0.7457,1.2052
9791.0,-0.8015,-1.2702,-6.255,0.4888,0.7457,1.2052
9796.0,-0.8015,-1.2702,-6.255,0.4888,0.7457,1.2052
9801.0,-1.3331,-2.8147,-8.127,0.2151,1.5282,1.9175
9806.0,-1.3331,-2.8147,-8.127,0.2151,1.5282,1.9175
9811.0,-1.3331,-2.8147,-8.127,0.2151,1.5282,1.9175
9817.0,-1.3331,-2.8147,-8.127,0.2151,1.5282,1.9175
9821.0,-1.3331,-2.8147,-8.127,0.2151,1.5282,1.9175
9827.0,-1.3331,-4.1828,-12.2357,0.2151,1.5282,1.9175
9831.0,-1.3331,-4.1828,-12.2357,-0.2858,1.0755,2.6725
9836.0,-1.3331,-4.1828,-12.2357,-0.2858,1.0755,2.6725
9841.0,-1.3331,-4.1828,-12.2357,-0.2858,1.0755,2.6725
9847.0,-1.3331,-4.1828,-12.2357,-0.2858,1.0755,2.6725
9851.0,5.3574,-6.3278,-10.4681,-0.2858,1.0755,2.6725
9856.0,5.3574,-6.3278,-10.4681,-0.2858,1.0755,2.6725
9861.0,5.3574,-6.3278,-10.4681,-0.2858,1.0755,2.6725
9867.0,5.3574,-6.3278,-10.4681,-1.3298,-1.9874,3.0452
9872.0,5.3574,-6.3278,-10.4681,-1.3298,-1.9874,3.0452
9876.0,5.3574,-6.3278,-10.4681,-1.3298,-1.9874,3.0452
9882.0,15.2519,-15.399,-8.4682,-1.3298,-1.9874,3.0452
9886.0,15.2519,-15.399,-8.4682,-1.3298,-1.9874,3.0452
9892.0,15.2519,-15.399,-8.4682,-1.3298,-1.9874,3.0452
9896.0,15.2519,-15.399,-8.4682,-1.2027,2.0829,1.2376
9901.0,15.2519,-15.399,-8.4682,-1.2027,2.0829,1.2376
9906.0,12.7711,-22.3204,-15.1076,-1.2027,2.0829,1.2376
9911.0,12.7711,-22.3204,-15.1076,-1.2027,2.0829,1.2376
9916.0,12.7711,-22.3204,-15.1076,-1.2027,2.0829,1.2376
9921.0,12.7711,-22.3204,-15.1076,-1.2027,2.0829,1.2376
9926.0,12.7711,-22.3204,-15.1076,0.3538,-0.3111,1.7184
9931.0,12.7711,-22.3204,-15.1076,0.3538,-0.3111,1.7184
9936.0,1.7751,-3.6775,-1.2885,0.3538,-0.3111,1.7184
9941.0,1.7751,-3.6775,-1.2885,0.3538,-0.3111,1.7184
9946.0,1.7751,-3.6775,-1.2885,0.3538,-0.3111,1.7184
9951.0,1.7751,-3.6775,-1.2885,0.3538,-0.3111,1.7184
9957.0,1.7751,-3.6775,-1.2885,-0.1502,-0.0106,3.0977
9961.0,0.4245,0.3934,0.1285,-0.1502,-0.0106,3.0977
9966.0,0.4245,0.3934,0.1285,-0.1502,-0.0106,3.0977
9971.0,0.4245,0.3934,0.1285,-0.1502,-0.0106,3.0977
9976.0,0.4245,0.3934,0.1285,-0.1502,-0.0106,3.0977
9981.0,0.4245,0.3934,0.1285,-0.1502,-0.0106,3.0977
9986.0,0.4245,0.3934,0.1285,-0.1502,-0.0106,3.0977
9991.0,1.0806,-1.499,-2.3501,-0.6413,-0.5066,3.3982
9997.0,1.0806,-1.499,-2.3501,-0.6413,-0.5066,3.3982
10001.0,1.0806,-1.499,-2.3501,-0.6413,-0.5066,3.3982
10006.0,1.0806,-1.499,-2.3501,-0.6413,-0.5066,3.3982
10011.0,1.0806,-1.499,-2.3501,-0.6413,-0.5066,3.3982
10016.0,1.0806,-1.499,-2.3501,-0.6413,-0.5066,3.3982
10021.0,8.5422,-11.0136,-3.3026,-0.8215,-0.2122,2.5259
10026.0,8.5422,-11.0136,-3.3026,-0.8215,-0.2122,2.5259
10031.0,8.5422,-11.0136,-3.3026,-0.8215,-0.2122,2.5259
10036.0,8.5422,-11.0136,-3.3026,-0.8215,-0.2122,2.5259
10041.0,8.5422,-11.0136,-3.3026,-0.8215,-0.2122,2.5259
10046.0,8.6715,-12.8345,-2.6012,-0.8215,-0.2122,2.5259
10051.0,8.6715,-12.8345,-2.6012,-0.8215,-0.2122,2.5259
10057.0,8.6715,-12.8345,-2.6012,-0.5125,0.0139,2.0989
10061.0,8.6715,-12.8345,-2.6012,-0.5125,0.0139,2.0989
10066.0,8.6715,-12.8345,-2.6012,-0.5125,0.0139,2.0989
10071.0,8.6715,-12.8345,-2.6012,-0.5125,0.0139,2.0989
10076.0,4.1409,-9.9649,-1.9757,-0.5125,0.0139,2.0989
10082.0,4.1409,-9.9649,-1.9757,-0.5125,0.0139,2.0989
10087.0,4.1409,-9.9649,-1.9757,-0.1123,0.1006,1.6817
10091.0,4.1409,-9.9649,-1.9757,-0.1123,0.1006,1.6817
10096.0,4.1409,-9.9649,-1.9757,-0.1123,0.1006,1.6817
10101.0,2.6036,-7.8341,-1.7008,-0.1123,0.1006,1.6817
10106.0,2.6036,-7.8341,-1.7008,-0.1123,0.1006,1.6817
10111.0,2.6036,-7.8341,-1.7008,-0.1123,0.1006,1.6817
10116.0,2.6036,-7.8341,-1.7008,-0.1123,0.1006,1.6817
10121.0,2.6036,-7.8341,-1.7008,-0.2461,0.169,1.4288
10129.0,2.1582,-8.1535,-0.8051,-0.2461,0.169,1.4288
10131.0,2.1582,-8.1535,-0.8051,-0.2461,0.169,1.4288
10136.0,2.1582,-8.1535,-0.8051,-0.2461,0.169,1.4288
10141.0,2.1582,-8.1535,-0.8051,-0.2461,0.169,1.4288
10146.0,2.1582,-8.1535,-0.8051,-0.2461,0.169,1.4288
10151.0,2.1582,-8.1535,-0.8051,-0.4691,0.2496,1.0049
10156.0,1.4254,-8.7065,-0.1938,-0.4691,0.2496,1.0049
10161.0,1.4254,-8.7065,-0.1938,-0.4691,0.2496,1.0049
10166.0,1.4254,-8.7065,-0.1938,-0.4691,0.2496,1.0049
10171.0,1.4254,-8.7065,-0.1938,-0.4691,0.2496,1.0049
10176.0,1.4254,-8.7065,-0.1938,-0.4691,0.2496,1.0049
10181.0,1.4254,-8.7065,-0.1938,-0.4691,0.2496,1.0049
10187.0,0.7166,-8.8781,-0.8383,-0.5552,1.2716,0.6597
10191.0,0.7166,-8.8781,-0.8383,-0.5552,1.2716,0.6597
10199.0,0.7166,-8.8781,-0.8383,-0.5552,1.2716,0.6597
10201.0,0.7166,-8.8781,-0.8383,-0.5552,1.2716,0.6597
10206.0,0.7166,-8.8781,-0.8383,-0.5552,1.2716,0.6597
10211.0,0.7166,-9.636,-1.5397,-0.5552,1.2716,0.6597
10216.0,2.2205,-9.636,-1.5397,-0.3322,1.7396,0.1722
10221.0,2.2205,-9.636,-1.5397,-0.3322,1.7396,0.1722
10226.0,2.2205,-9.636,-1.5397,-0.3322,1.7396,0.1722
10232.0,2.2205,-9.636,-1.5397,-0.3322,1.7396,0.1722
10236.0,2.2205,-9.636,-1.5397,-0.3322,1.7396,0.1722
10241.0,2.5988,-9.6264,-0.118,-0.3322,1.7396,0.1722
10246.0,2.5988,-9.6264,-0.118,0.1699,1.8055,0.0831
10251.0,2.5988,-9.6264,-0.118,0.1699,1.8055,0.0831
10256.0,2.5988,-9.6264,-0.118,0.1699,1.8055,0.0831
10261.0,2.5988,-9.6264,-0.118,0.1699,1.8055,0.0831
10266.0,2.3354,-8.3013,0.1759,0.1699,1.8055,0.0831
10271.0,2.3354,-8.3013,0.1759,0.1699,1.8055,0.0831
10276.0,2.3354,-8.3013,0.1759,0.1699,1.8055,0.0831
10281.0,2.3354,-8.3013,0.1759,0.2102,1.2167,0.2645
10286.0,2.3354,-8.3013,0.1759,0.2102,1.2167,0.2645
10291.0,2.3354,-8.3013,0.1759,0.2102,1.2167,0.2645
10296.0,2.072,-8.0963,0.5029,0.2102,1.2167,0.2645
10301.0,2.072,-8.0963,0.5029,0.2102,1.2167,0.2645
10306.0,2.072,-8.0963,0.5029,0.2102,1.2167,0.2645
10311.0,2.072,-8.0963,0.5029,0.2976,0.3016,0.5595
10317.0,2.072,-8.0963,0.5029,0.2976,0.3016,0.5595
10321.0,3.1831,-9.369,0.6735,0.2976,0.3016,0.5595
10327.0,3.1831,-9.369,0.6735,0.2976,0.3016,0.5595
10331.0,3.1831,-9.369,0.6735,0.2976,0.3016,0.5595
10336.0,3.1831,-9.369,0.6735,0.2976,0.3016,0.5595
10341.0,3.1831,-9.369,0.6735,0.5486,-0.4779,1.0452
10346.0,3.1831,-9.369,0.6735,0.5486,-0.4779,1.0452
10351.0,3.8871,-9.9315,0.7161,0.5486,-0.4779,1.0452
10356.0,3.8871,-9.9315,0.7161,0.5486,-0.4779,1.0452
10361.0,3.8871,-9.9315,0.7161,0.5486,-0.4779,1.0452
10366.0,3.8871,-9.9315,0.7161,0.5486,-0.4779,1.0452
10371.0,3.8871,-9.9315,0.7161,0.7533,-0.8322,1.686
10376.0,3.8871,-9.9315,0.7161,0.7533,-0.8322,1.686
10381.0,5.2137,-9.4596,1.1474,0.7533,-0.8322,1.686
10386.0,5.2137,-9.4596,1.1474,0.7533,-0.8322,1.686
10391.0,5.2137,-9.4596,1.1474,0.7533,-0.8322,1.686
10396.0,5.2137,-9.4596,1.1474,0.7533,-0.8322,1.686
10401.0,5.2137,-9.4596,1.1474,0.5554,0.1195,2.3891
10406.0,7.1342,-8.6397,0.8725,0.5554,0.1195,2.3891
10412.0,7.1342,-8.6397,0.8725,0.5554,0.1195,2.3891
10416.0,7.1342,-8.6397,0.8725,0.5554,0.1195,2.3891
10421.0,7.1342,-8.6397,0.8725,0.5554,0.1195,2.3891
10426.0,7.1342,-8.6397,0.8725,0.5554,0.1195,2.3891
10431.0,7.8095,-7.9009,-2.3027,-0.1282,2.9045,1.0855
10436.0,7.8095,-7.9009,-2.3027,-0.1282,2.9045,1.0855
10441.0,7.8095,-7.9009,-2.3027,-0.1282,2.9045,1.0855
10446.0,7.8095,-7.9009,-2.3027,-0.1282,2.9045,1.0855
10451.0,7.8095,-7.9009,-2.3027,-0.1282,2.9045,1.0855
10456.0,7.8095,-7.9009,-2.3027,-0.1282,2.9045,1.0855
10461.0,3.7769,-10.5035,-4.7433,-0.3548,1.7322,-1.1087
10467.0,3.7769,-10.5035,-4.7433,-0.3548,1.7322,-1.1087
10471.0,3.7769,-10.5035,-4.7433,-0.3548,1.7322,-1.1087
10476.0,3.7769,-10.5035,-4.7433,-0.3548,1.7322,-1.1087
10481.0,3.7769,-10.5035,-4.7433,-0.3548,1.7322,-1.1087
10486.0,2.4264,-11.4664,-1.9615,-0.3548,1.7322,-1.1087
10491.0,2.4264,-11.4664,-1.9615,-0.2327,0.1525,-1.1546
10496.0,2.4264,-11.4664,-1.9615,-0.2327,0.1525,-1.1546
10501.0,2.4264,-11.4664,-1.9615,-0.2327,0.1525,-1.1546
10506.0,2.4264,-11.4664,-1.9615,-0.2327,0.1525,-1.1546
10511.0,1.9954,-11.8382,-1.4307,-0.2327,0.1525,-1.1546
10517.0,1.9954,-11.8382,-1.4307,-0.2327,0.1525,-1.1546
10521.0,1.9954,-11.8382,-1.4307,0.0148,0.6681,1.0702
10527.0,1.9954,-11.8382,-1.4307,0.0148,0.6681,1.0702
10531.0,1.9954,-11.8382,-1.4307,0.0148,0.6681,1.0702
10536.0,1.9954,-11.8382,-1.4307,0.0148,0.6681,1.0702
10541.0,4.026,-12.0956,-1.5444,0.0148,0.6681,1.0702
10546.0,4.026,-12.0956,-1.5444,0.0148,0.6681,1.0702
10551.0,4.026,-12.0956,-1.5444,0.0148,0.6681,1.0702
10557.0,4.026,-12.0956,-1.5444,0.5688,-0.5842,1.3036
10561.0,4.026,-12.0956,-1.5444,0.5688,-0.5842,1.3036
10566.0,5.5059,-14.1883,-0.6724,0.5688,-0.5842,1.3036
10571.0,5.5059,-14.1883,-0.6724,0.5688,-0.5842,1.3036
10576.0,5.5059,-14.1883,-0.6724,0.5688,-0.5842,1.3036
10582.0,5.5059,-14.1883,-0.6724,0.5688,-0.5842,1.3036
10586.0,5.5059,-14.1883,-0.6724,0.4259,-1.1034,0.3195
10591.0,5.8603,-16.1522,0.7114,0.4259,-1.1034,0.3195
10596.0,5.8603,-16.1522,0.7114,0.4259,-1.1034,0.3195
10601.0,5.8603,-16.1522,0.7114,0.4259,-1.1034,0.3195
10606.0,5.8603,-16.1522,0.7114,0.4259,-1.1034,0.3195
10611.0,5.8603,-16.1522,0.7114,0.4259,-1.1034,0.3195
10616.0,5.8603,-16.1522,0.7114,0.3526,-1.9916,-0.7025
10621.0,5.6591,-13.0538,1.2185,0.3526,-1.9916,-0.7025
10626.0,5.6591,-13.0538,1.2185,0.3526,-1.9916,-0.7025
10631.0,5.6591,-13.0538,1.2185,0.3526,-1.9916,-0.7025
10636.0,5.6591,-13.0538,1.2185,0.3526,-1.9916,-0.7025
10642.0,5.6591,-13.0538,1.2185,0.3526,-1.9916,-0.7025
10646.0,6.4589,-8.0582,1.3038,0.3526,-1.9916,-0.7025
10651.0,6.4589,-8.0582,1.3038,-0.0121,-1.7705,-0.9866
10656.0,6.4589,-8.0582,1.3038,-0.0121,-1.7705,-0.9866
10661.0,6.4589,-8.0582,1.3038,-0.0121,-1.7705,-0.9866
10667.0,6.4589,-8.0582,1.3038,-0.0121,-1.7705,-0.9866
10671.0,6.4589,-8.0582,1.3038,-0.0121,-1.7705,-0.9866
10676.0,6.138,-5.6462,0.7303,-0.0121,-1.7705,-0.9866
10682.0,6.138,-5.6462,0.7303,-0.499,-0.4675,-0.854
10686.0,6.138,-5.6462,0.7303,-0.499,-0.4675,-0.854
10692.0,6.138,-5.6462,0.7303,-0.499,-0.4675,-0.854
10696.0,6.138,-5.6462,0.7303,-0.499,-0.4675,-0.854
10701.0,5.4628,-7.1763,0.555,-0.499,-0.4675,-0.854
10706.0,5.4628,-7.1763,0.555,-0.4122,-0.4712,-0.4386
10711.0,5.4628,-7.1763,0.555,-0.4122,-0.4712,-0.4386
10716.0,5.4628,-7.1763,0.555,-0.4122,-0.4712,-0.4386
10721.0,5.4628,-7.1763,0.555,-0.4122,-0.4712,-0.4386
10726.0,4.8976,-9.3643,0.7872,-0.4122,-0.4712,-0.4386
10731.0,4.8976,-9.3643,0.7872,-0.4122,-0.4712,-0.4386
10736.0,4.8976,-9.3643,0.7872,-0.4122,-0.4712,-0.4386
10741.0,4.8976,-9.3643,0.7872,0.0331,0.1886,-0.3946
10747.0,4.8976,-9.3643,0.7872,0.0331,0.1886,-0.3946
10751.0,4.8976,-9.3643,0.7872,0.0331,0.1886,-0.3946
10757.0,3.6524,-7.9295,0.5171,0.0331,0.1886,-0.3946
10762.0,3.6524,-7.9295,0.5171,0.0331,0.1886,-0.3946
10766.0,3.6524,-7.9295,0.5171,0.0331,0.1886,-0.3946
10771.0,3.6524,-7.9295,0.5171,0.0331,0.1886,-0.3946
10776.0,3.6524,-7.9295,0.5171,-0.2443,1.9919,-1.0501
10781.0,2.2205,-8.2012,-2.5491,-0.2443,1.9919,-1.0501
10787.0,2.2205,-8.2012,-2.5491,-0.2443,1.9919,-1.0501
10791.0,2.2205,-8.2012,-2.5491,-0.2443,1.9919,-1.0501
10796.0,2.2205,-8.2012,-2.5491,-0.2443,1.9919,-1.0501
10801.0,2.2205,-8.2012,-2.5491,-0.2443,1.9919,-1.0501
10806.0,1.9954,-9.5931,-10.0747,-0.2846,2.3663,-3.9774
10811.0,1.9954,-9.5931,-10.0747,-0.2846,2.3663,-3.9774
10816.0,1.9954,-9.5931,-10.0747,-0.2846,2.3663,-3.9774
10822.0,1.9954,-9.5931,-10.0747,-0.2846,2.3663,-3.9774
10826.0,1.9954,-9.5931,-10.0747,-0.2846,2.3663,-3.9774
10831.0,3.5662,-7.3527,-3.3927,-0.2846,2.3663,-3.9774
10836.0,3.5662,-7.3527,-3.3927,-0.7476,-1.933,-3.099
10841.0,3.5662,-7.3527,-3.3927,-0.7476,-1.933,-3.099
10846.0,3.5662,-7.3527,-3.3927,-0.7476,-1.933,-3.099
10852.0,3.5662,-7.3527,-3.3927,-0.7476,-1.933,-3.099
10856.0,3.5662,-7.3527,-3.3927,-0.7476,-1.933,-3.099
10861.0,4.8258,-6.8379,1.2137,-0.7476,-1.933,-3.099
10866.0,4.8258,-6.8379,1.2137,-0.9284,-5.2164,-0.1619
10872.0,4.8258,-6.8379,1.2137,-0.9284,-5.2164,-0.1619
10876.0,4.8258,-6.8379,1.2137,-0.9284,-5.2164,-0.1619
10881.0,4.8258,-6.8379,1.2137,-0.9284,-5.2164,-0.1619
10886.0,4.39,-6.6138,3.1994,-0.9284,-5.2164,-0.1619
10892.0,4.39,-6.6138,3.1994,-0.9284,-5.2164,-0.1619
10897.0,4.39,-6.6138,3.1994,0.0685,-5.6373,0.9169
10902.0,4.39,-6.6138,3.1994,0.0685,-5.6373,0.9169
10907.0,4.39,-6.6138,3.1994,0.0685,-5.6373,0.9169
10912.0,4.39,-6.6138,3.1994,0.0685,-5.6373,0.9169
10916.0,4.39,-6.6949,5.7158,0.0685,-5.6373,0.9169
10921.0,4.39,-6.6949,5.7158,0.0685,-5.6373,0.9169
10926.0,4.39,-6.6949,5.7158,0.8339,-2.3459,1.1948
10931.0,4.39,-6.6949,5.7158,0.8339,-2.3459,1.1948
10936.0,4.39,-6.6949,5.7158,0.8339,-2.3459,1.1948
10941.0,4.39,-6.6949,5.7158,0.8339,-2.3459,1.1948
10946.0,5.1467,-7.0476,3.8107,0.8339,-2.3459,1.1948
10951.0,5.1467,-7.0476,3.8107,0.4436,0.8709,0.0995
10956.0,5.1467,-7.0476,3.8107,0.4436,0.8709,0.0995
10961.0,5.1467,-7.0476,3.8107,0.4436,0.8709,0.0995
10966.0,5.1467,-7.0476,3.8107,0.4436,0.8709,0.0995
10971.0,4.6534,-6.1562,1.3369,0.4436,0.8709,0.0995
10976.0,4.6534,-6.1562,1.3369,0.4436,0.8709,0.0995
10982.0,4.6534,-6.1562,1.3369,0.4436,0.8709,0.0995
10986.0,4.6534,-6.1562,1.3369,-0.3047,3.2808,-1.4814
10991.0,4.6534,-6.1562,1.3369,-0.3047,3.2808,-1.4814
10996.0,3.3459,-7.653,-2.5491,-0.3047,3.2808,-1.4814
11001.0,3.3459,-7.653,-2.5491,-0.3047,3.2808,-1.4814
11006.0,3.3459,-7.653,-2.5491,-0.3047,3.2808,-1.4814
11011.0,3.3459,-7.653,-2.5491,-0.3047,3.2808,-1.4814
11016.0,3.3459,-7.653,-2.5491,-0.3957,5.0493,-3.9004
11021.0,3.3459,-7.653,-2.5491,-0.3957,5.0493,-3.9004
11026.0,2.4168,-12.9251,-10.7998,-0.3957,5.0493,-3.9004
11032.0,2.4168,-12.9251,-10.7998,-0.3957,5.0493,-3.9004
11036.0,2.4168,-12.9251,-10.7998,-0.3957,5.0493,-3.9004
11042.0,2.4168,-12.9251,-10.7998,-0.3957,5.0493,-3.9004
11046.0,2.4168,-12.9251,-10.7998,-0.3957,5.0493,-3.9004
11051.0,3.8823,-9.6646,-4.4163,-0.0353,0.125,-3.5247
11057.0,3.8823,-9.6646,-4.4163,-0.0353,0.125,-3.5247
11061.0,3.8823,-9.6646,-4.4163,-0.0353,0.125,-3.5247
11066.0,3.8823,-9.6646,-4.4163,-0.0353,0.125,-3.5247
11071.0,3.8823,-9.6646,-4.4163,-0.0353,0.125,-3.5247
11077.0,3.3124,-8.1678,-2.7339,-0.0353,0.125,-3.5247
11081.0,3.3124,-8.1678,-2.7339,0.2298,-1.1492,0.2993
11087.0,3.3124,-8.1678,-2.7339,0.2298,-1.1492,0.2993
11091.0,3.3124,-8.1678,-2.7339,0.2298,-1.1492,0.2993
11096.0,3.3124,-8.1678,-2.7339,0.2298,-1.1492,0.2993
11101.0,3.3124,-8.1678,-2.7339,0.2298,-1.1492,0.2993
11106.0,3.4321,-8.2822,-4.0988,0.2298,-1.1492,0.2993
11111.0,3.4321,-8.2822,-4.0988,0.6079,-1.8615,0.9541
11116.0,3.4321,-8.2822,-4.0988,0.6079,-1.8615,0.9541
11122.0,3.4321,-8.2822,-4.0988,0.6079,-1.8615,0.9541
11127.0,3.4321,-8.2822,-4.0988,0.6079,-1.8615,0.9541
