time in milliseconds,acceleration_x,acceleration_y,acceleration_z,Roll,Pitch,Yaw
4.0,-4.9825,1.3515,7.711,-0.657,0.6315,0.7091
9.0,-4.9825,1.3515,7.711,-0.2471,0.1795,-0.3312
14.0,-4.9825,1.3515,7.711,-0.2471,0.1795,-0.3312
19.0,-4.9825,1.3515,7.711,-0.2471,0.1795,-0.3312
24.0,-4.9825,1.3515,7.711,-0.2471,0.1795,-0.3312
29.0,-4.9825,1.3515,7.711,-0.2471,0.1795,-0.3312
34.0,-5.2795,0.7414,7.5451,-0.2471,0.1795,-0.3312
39.0,-5.2795,0.7414,7.5451,0.0205,-0.1455,-0.556
44.0,-5.2795,0.7414,7.5451,0.0205,-0.1455,-0.556
49.0,-5.2795,0.7414,7.5451,0.0205,-0.1455,-0.556
54.0,-5.2795,0.7414,7.5451,0.0205,-0.1455,-0.556
59.0,-5.2795,0.7414,7.5451,0.0205,-0.1455,-0.556
64.0,-5.0113,-0.0023,7.3034,0.0205,-0.1455,-0.556
69.0,-5.0113,-0.0023,7.3034,0.0461,-0.1565,-0.2353
75.0,-5.0113,-0.0023,7.3034,0.0461,-0.1565,-0.2353
79.0,-5.0113,-0.0023,7.3034,0.0461,-0.1565,-0.2353
84.0,-5.0113,-0.0023,7.3034,0.0461,-0.1565,-0.2353
89.0,-4.8867,-1.132,6.6162,0.0461,-0.1565,-0.2353
94.0,-4.8867,-1.132,6.6162,0.0461,-0.1565,-0.2353
99.0,-4.8867,-1.132,6.6162,-0.029,-0.4173,0.4923
104.0,-4.8867,-1.132,6.6162,-0.029,-0.4173,0.4923
109.0,-4.8867,-1.132,6.6162,-0.029,-0.4173,0.4923
114.0,-4.791,-0.212,5.0334,-0.029,-0.4173,0.4923
119.0,-4.791,-0.212,5.0334,-0.029,-0.4173,0.4923
124.0,-4.791,-0.212,5.0334,-0.029,-0.4173,0.4923
130.0,-4.791,-0.212,5.0334,-0.029,-0.4173,0.4923
134.0,-4.791,-0.212,5.0334,-0.489,0.345,0.4171
139.0,-4.791,-0.212,5.0334,-0.489,0.345,0.4171
144.0,-4.791,-0.212,5.0334,-0.489,0.345,0.4171
149.0,-4.7,-0.4599,4.2088,-0.489,0.345,0.4171
154.0,-4.7,-0.4599,4.2088,-0.489,0.345,0.4171
159.0,-4.7,-0.4599,4.2088,-0.489,0.345,0.4171
164.0,-4.7,-0.4599,4.2088,-1.1909,1.5399,0.3499
169.0,-4.7,-0.4599,4.2088,-1.1909,1.5399,0.3499
174.0,-2.837,-1.5324,3.4553,-1.1909,1.5399,0.3499
179.0,-2.837,-1.5324,3.4553,-1.1909,1.5399,0.3499
185.0,-2.837,-1.5324,3.4553,-1.1909,1.5399,0.3499
189.0,-2.837,-1.5324,3.4553,-1.1909,1.5399,0.3499
194.0,-2.837,-1.5324,3.4553,-1.3662,3.1996,0.174
199.0,-2.6741,-2.5191,1.5549,-1.3662,3.1996,0.174
204.0,-2.6741,-2.5191,1.5549,-1.3662,3.1996,0.174
209.0,-2.6741,-2.5191,1.5549,-1.3662,3.1996,0.174
214.0,-2.6741,-2.5191,1.5549,-1.3662,3.1996,0.174
219.0,-2.6741,-2.5191,1.5549,-1.3662,3.1996,0.174
224.0,-2.6741,-2.5191,1.5549,-1.3662,3.1996,0.174
229.0,-1.405,-2.7384,-0.426,-1.4548,5.1404,-0.333
234.0,-1.405,-2.7384,-0.426,-1.4548,5.1404,-0.333
240.0,-1.405,-2.7384,-0.426,-1.4548,5.1404,-0.333
244.0,-1.405,-2.7384,-0.426,-1.4548,5.1404,-0.333
249.0,-1.405,-2.7384,-0.426,-1.4548,5.1404,-0.333
254.0,-1.5535,-4.4259,-2.0657,-1.4548,5.1404,-0.333
259.0,-1.5535,-4.4259,-2.0657,-2.3228,6.1373,-0.9451
264.0,-1.5535,-4.4259,-2.0657,-2.3228,6.1373,-0.9451
269.0,-1.5535,-4.4259,-2.0657,-2.3228,6.1373,-0.9451
274.0,-1.5535,-4.4259,-2.0657,-2.3228,6.1373,-0.9451
279.0,-2.4251,-6.8712,-2.0989,-2.3228,6.1373,-0.9451
284.0,-2.4251,-6.8712,-2.0989,-2.3228,6.1373,-0.9451
289.0,-2.4251,-6.8712,-2.0989,-2.3228,6.1373,-0.9451
294.0,-2.4251,-6.8712,-2.0989,-3.7749,6.7873,-1.7508
299.0,-2.4251,-6.8712,-2.0989,-3.7749,6.7873,-1.7508
304.0,-2.4251,-6.8712,-2.0989,-3.7749,6.7873,-1.7508
309.0,-3.3638,-10.9612,-0.0042,-3.7749,6.7873,-1.7508
314.0,-3.3638,-10.9612,-0.0042,-3.7749,6.7873,-1.7508
319.0,-3.3638,-10.9612,-0.0042,-3.7749,6.7873,-1.7508
324.0,-3.3638,-10.9612,-0.0042,-5.489,8.3529,-2.358
329.0,-3.3638,-10.9612,-0.0042,-5.489,8.3529,-2.358
334.0,-3.3638,-10.9612,-0.0042,-5.489,8.3529,-2.358
339.0,-5.5429,-16.2809,0.0858,-5.489,8.3529,-2.358
344.0,-5.5429,-16.2809,0.0858,-5.489,8.3529,-2.358
349.0,-5.5429,-16.2809,0.0858,-5.489,8.3529,-2.358
354.0,-5.5429,-16.2809,0.0858,-6.6026,9.1972,-2.3849
359.0,-5.5429,-16.2809,0.0858,-6.6026,9.1972,-2.3849
364.0,-13.3733,-20.1182,-0.7435,-6.6026,9.1972,-2.3849
369.0,-13.3733,-20.1182,-0.7435,-6.6026,9.1972,-2.3849
374.0,-13.3733,-20.1182,-0.7435,-6.6026,9.1972,-2.3849
379.0,-13.3733,-20.1182,-0.7435,-6.6026,9.1972,-2.3849
384.0,-13.3733,-20.1182,-0.7435,-6.6026,9.1972,-2.3849
389.0,-22.3578,-20.2612,-0.6487,-6.3417,8.0054,-1.165
394.0,-22.3578,-20.2612,-0.6487,-6.3417,8.0054,-1.165
399.0,-22.3578,-20.2612,-0.6487,-6.3417,8.0054,-1.165
404.0,-22.3578,-20.2612,-0.6487,-6.3417,8.0054,-1.165
409.0,-22.3578,-20.2612,-0.6487,-6.3417,8.0054,-1.165
414.0,-22.3578,-20.2612,-0.6487,-6.3417,8.0054,-1.165
419.0,-25.8779,-15.0606,-0.753,-2.3735,1.7366,1.7012
424.0,-25.8779,-15.0606,-0.753,-2.3735,1.7366,1.7012
429.0,-25.8779,-15.0606,-0.753,-2.3735,1.7366,1.7012
434.0,-25.8779,-15.0606,-0.753,-2.3735,1.7366,1.7012
439.0,-25.8779,-15.0606,-0.753,-2.3735,1.7366,1.7012
444.0,-23.0379,-7.9342,-5.0087,-2.3735,1.7366,1.7012
450.0,-23.0379,-7.9342,-5.0087,-1.9868,-4.2823,1.5301
454.0,-23.0379,-7.9342,-5.0087,-1.9868,-4.2823,1.5301
459.0,-23.0379,-7.9342,-5.0087,-1.9868,-4.2823,1.5301
465.0,-23.0379,-7.9342,-5.0087,-1.9868,-4.2823,1.5301
469.0,-20.1021,-2.1807,-2.587,-1.9868,-4.2823,1.5301
474.0,-20.1021,-2.1807,-2.587,-1.9868,-4.2823,1.5301
479.0,-20.1021,-2.1807,-2.587,-3.3979,-4.3043,-1.3202
484.0,-20.1021,-2.1807,-2.587,-3.3979,-4.3043,-1.3202
489.0,-20.1021,-2.1807,-2.587,-3.3979,-4.3043,-1.3202
494.0,-20.1021,-2.1807,-2.587,-3.3979,-4.3043,-1.3202
499.0,-15.9882,-3.9349,-4.9139,-3.3979,-4.3043,-1.3202
504.0,-15.9882,-3.9349,-4.9139,-3.3979,-4.3043,-1.3202
509.0,-15.9882,-3.9349,-4.9139,-3.3979,-4.3043,-1.3202
514.0,-15.9882,-3.9349,-4.9139,-1.751,-2.8828,-1.997
519.0,-15.9882,-3.9349,-4.9139,-1.751,-2.8828,-1.997
524.0,-13.3972,-3.7871,1.844,-1.751,-2.8828,-1.997
529.0,-13.3972,-3.7871,1.844,-1.751,-2.8828,-1.997
534.0,-13.3972,-3.7871,1.844,-1.751,-2.8828,-1.997
539.0,-13.3972,-3.7871,1.844,-1.751,-2.8828,-1.997
544.0,-13.3972,-3.7871,1.844,-1.5116,-4.0178,0.8606
549.0,-10.2267,-4.2543,1.4128,-1.5116,-4.0178,0.8606
554.0,-10.2267,-4.2543,1.4128,-1.5116,-4.0178,0.8606
559.0,-10.2267,-4.2543,1.4128,-1.5116,-4.0178,0.8606
564.0,-10.2267,-4.2543,1.4128,-1.5116,-4.0178,0.8606
569.0,-10.2267,-4.2543,1.4128,-1.5116,-4.0178,0.8606
574.0,-10.2267,-4.2543,1.4128,-1.0497,-0.771,3.2644
579.0,-3.5314,-4.0588,-3.0799,-1.0497,-0.771,3.2644
584.0,-3.5314,-4.0588,-3.0799,-1.0497,-0.771,3.2644
589.0,-3.5314,-4.0588,-3.0799,-1.0497,-0.771,3.2644
594.0,-3.5314,-4.0588,-3.0799,-1.0497,-0.771,3.2644
599.0,-3.5314,-4.0588,-3.0799,-1.0497,-0.771,3.2644
604.0,-4.4222,-6.3087,-0.2744,0.6082,1.2644,1.1373
609.0,-4.4222,-6.3087,-0.2744,0.6082,1.2644,1.1373
614.0,-4.4222,-6.3087,-0.2744,0.6082,1.2644,1.1373
619.0,-4.4222,-6.3087,-0.2744,0.6082,1.2644,1.1373
624.0,-4.4222,-6.3087,-0.2744,0.6082,1.2644,1.1373
629.0,-4.4222,-6.3087,-0.2744,0.6082,1.2644,1.1373
634.0,-6.5917,-5.4603,-1.1985,0.6082,1.2644,1.1373
639.0,-6.5917,-5.4603,-1.1985,0.2905,1.3456,0.8368
644.0,-6.5917,-5.4603,-1.1985,0.2905,1.3456,0.8368
649.0,-6.5917,-5.4603,-1.1985,0.2905,1.3456,0.8368
654.0,-6.5917,-5.4603,-1.1985,0.2905,1.3456,0.8368
659.0,-7.2766,-6.2754,-0.1416,0.2905,1.3456,0.8368
664.0,-7.2766,-6.2754,-0.1416,0.2905,1.3456,0.8368
669.0,-7.2766,-6.2754,-0.1416,-0.3344,0.728,1.9932
674.0,-7.2766,-6.2754,-0.1416,-0.3344,0.728,1.9932
679.0,-7.2766,-6.2754,-0.1416,-0.3344,0.728,1.9932
684.0,-7.4011,-6.6663,1.4175,-0.3344,0.728,1.9932
689.0,-7.4011,-6.6663,1.4175,-0.3344,0.728,1.9932
695.0,-7.4011,-6.6663,1.4175,-0.3344,0.728,1.9932
699.0,-7.4011,-6.6663,1.4175,0.1323,2.0249,2.4116
704.0,-7.4011,-6.6663,1.4175,0.1323,2.0249,2.4116
709.0,-7.4011,-6.6663,1.4175,0.1323,2.0249,2.4116
714.0,-8.0333,-7.8818,-0.4307,0.1323,2.0249,2.4116
719.0,-8.0333,-7.8818,-0.4307,0.1323,2.0249,2.4116
724.0,-8.0333,-7.8818,-0.4307,0.1323,2.0249,2.4116
729.0,-8.0333,-7.8818,-0.4307,0.723,1.6902,2.3976
734.0,-8.0333,-7.8818,-0.4307,0.723,1.6902,2.3976
739.0,-8.2153,-7.9104,-0.7909,0.723,1.6902,2.3976
744.0,-8.2153,-7.9104,-0.7909,0.723,1.6902,2.3976
749.0,-8.2153,-7.9104,-0.7909,0.723,1.6902,2.3976
754.0,-8.2153,-7.9104,-0.7909,0.723,1.6902,2.3976
759.0,-8.2153,-7.9104,-0.7909,0.632,0.9975,2.1361
764.0,-8.2153,-7.9104,-0.7909,0.632,0.9975,2.1361
769.0,-7.8896,-9.4691,0.8298,0.632,0.9975,2.1361
774.0,-7.8896,-9.4691,0.8298,0.632,0.9975,2.1361
779.0,-7.8896,-9.4691,0.8298,0.632,0.9975,2.1361
784.0,-7.8896,-9.4691,0.8298,0.632,0.9975,2.1361
789.0,-7.8896,-9.4691,0.8298,0.431,1.6474,1.3053
794.0,-4.5563,-11.9622,2.0383,0.431,1.6474,1.3053
801.0,-4.5563,-11.9622,2.0383,0.431,1.6474,1.3053
804.0,-4.5563,-11.9622,2.0383,0.431,1.6474,1.3053
809.0,-4.5563,-11.9622,2.0383,0.431,1.6474,1.3053
814.0,-4.5563,-11.9622,2.0383,0.431,1.6474,1.3053
819.0,-2.4395,-11.1995,-0.4639,0.4255,2.097,0.3591
824.0,-2.4395,-11.1995,-0.4639,0.4255,2.097,0.3591
829.0,-2.4395,-11.1995,-0.4639,0.4255,2.097,0.3591
834.0,-2.4395,-11.1995,-0.4639,0.4255,2.097,0.3591
839.0,-2.4395,-11.1995,-0.4639,0.4255,2.097,0.3591
844.0,-2.4395,-11.1995,-0.4639,0.4255,2.097,0.3591
849.0,-3.8906,-12.0575,0.4649,0.4255,2.097,0.3591
854.0,-3.8906,-12.0575,0.4649,-0.9386,2.623,-0.5676
859.0,-3.8906,-12.0575,0.4649,-0.9386,2.623,-0.5676
864.0,-3.8906,-12.0575,0.4649,-0.9386,2.623,-0.5676
869.0,-3.8906,-12.0575,0.4649,-0.9386,2.623,-0.5676
874.0,-11.3474,-8.4872,2.2705,-0.9386,2.623,-0.5676
879.0,-11.3474,-8.4872,2.2705,-0.9386,2.623,-0.5676
884.0,-11.3474,-8.4872,2.2705,1.1347,2.2082,-0.3513
889.0,-11.3474,-8.4872,2.2705,1.1347,2.2082,-0.3513
894.0,-11.3474,-8.4872,2.2705,1.1347,2.2082,-0.3513
899.0,-11.3474,-8.4872,2.2705,1.1347,2.2082,-0.3513
904.0,-11.3474,-8.4872,2.2705,1.1347,2.2082,-0.3513
909.0,-12.4633,-10.1317,1.6544,1.1347,2.2082,-0.3513
914.0,-12.4633,-10.1317,1.6544,2.8745,1.5692,0.2925
919.0,-12.4633,-10.1317,1.6544,2.8745,1.5692,0.2925
924.0,-12.4633,-10.1317,1.6544,2.8745,1.5692,0.2925
929.0,-12.4633,-10.1317,1.6544,2.8745,1.5692,0.2925
934.0,3.8057,-8.7684,-0.7246,2.8745,1.5692,0.2925
939.0,3.8057,-8.7684,-0.7246,2.8745,1.5692,0.2925
944.0,3.8057,-8.7684,-0.7246,-1.7791,1.1777,1.3793
949.0,3.8057,-8.7684,-0.7246,-1.7791,1.1777,1.3793
954.0,3.8057,-8.7684,-0.7246,-1.7791,1.1777,1.3793
959.0,3.2118,-7.0667,5.0666,-1.7791,1.1777,1.3793
964.0,3.2118,-7.0667,5.0666,-1.7791,1.1777,1.3793
969.0,3.2118,-7.0667,5.0666,-1.7791,1.1777,1.3793
974.0,3.2118,-7.0667,5.0666,-2.9337,0.4532,1.0372
979.0,3.2118,-7.0667,5.0666,-2.9337,0.4532,1.0372
984.0,3.2118,-7.0667,5.0666,-2.9337,0.4532,1.0372
989.0,-5.1118,-10.8134,0.7303,-2.9337,0.4532,1.0372
994.0,-5.1118,-10.8134,0.7303,-2.9337,0.4532,1.0372
999.0,-5.1118,-10.8134,0.7303,-2.9337,0.4532,1.0372
1004.0,-5.1118,-10.8134,0.7303,-0.1053,-0.3715,-0.3648
1010.0,-5.1118,-10.8134,0.7303,-0.1053,-0.3715,-0.3648
1014.0,1.095,-12.4579,-0.5303,-0.1053,-0.3715,-0.3648
1020.0,1.095,-12.4579,-0.5303,-0.1053,-0.3715,-0.3648
1024.0,1.095,-12.4579,-0.5303,-0.1053,-0.3715,-0.3648
1029.0,1.095,-12.4579,-0.5303,-0.1053,-0.3715,-0.3648
1034.0,1.095,-12.4579,-0.5303,-0.1243,-0.548,-1.5395
1040.0,-3.5697,-9.3547,0.6308,-0.1243,-0.548,-1.5395
1044.0,-3.5697,-9.3547,0.6308,-0.1243,-0.548,-1.5395
1049.0,-3.5697,-9.3547,0.6308,-0.1243,-0.548,-1.5395
1054.0,-3.5697,-9.3547,0.6308,-0.1243,-0.548,-1.5395
1059.0,-3.5697,-9.3547,0.6308,-0.1243,-0.548,-1.5395
1064.0,-3.5697,-9.3547,0.6308,2.1903,-2.0783,-1.1455
1070.0,1.435,-9.0783,-1.625,2.1903,-2.0783,-1.1455
1074.0,1.435,-9.0783,-1.625,2.1903,-2.0783,-1.1455
1079.0,1.435,-9.0783,-1.625,2.1903,-2.0783,-1.1455
1084.0,1.435,-9.0783,-1.625,2.1903,-2.0783,-1.1455
1090.0,1.435,-9.0783,-1.625,2.1903,-2.0783,-1.1455
1094.0,1.0854,-6.5995,-1.4259,4.5397,-2.862,-0.0135
1100.0,1.0854,-6.5995,-1.4259,4.5397,-2.862,-0.0135
1104.0,1.0854,-6.5995,-1.4259,4.5397,-2.862,-0.0135
1109.0,1.0854,-6.5995,-1.4259,4.5397,-2.862,-0.0135
1115.0,1.0854,-6.5995,-1.4259,4.5397,-2.862,-0.0135
1119.0,-3.7852,-8.5253,1.8677,4.5397,-2.862,-0.0135
1124.0,-3.7852,-8.5253,1.8677,6.6998,-2.0532,1.499
1129.0,-3.7852,-8.5253,1.8677,6.6998,-2.0532,1.499
1134.0,-3.7852,-8.5253,1.8677,6.6998,-2.0532,1.499
1139.0,-3.7852,-8.5253,1.8677,6.6998,-2.0532,1.499
1144.0,-10.0735,-12.906,6.4219,6.6998,-2.0532,1.499
1149.0,-10.0735,-12.906,6.4219,6.6998,-2.0532,1.499
1154.0,-10.0735,-12.906,6.4219,7.4249,-0.6592,2.1728
1160.0,-10.0735,-12.906,6.4219,7.4249,-0.6592,2.1728
1164.0,-10.0735,-12.906,6.4219,7.4249,-0.6592,2.1728
1169.0,-10.0735,-12.906,6.4219,7.4249,-0.6592,2.1728
1174.0,0.3718,-2.2999,-0.9757,7.4249,-0.6592,2.1728
1179.0,0.3718,-2.2999,-0.9757,7.4249,-0.6592,2.1728
1184.0,0.3718,-2.2999,-0.9757,7.4249,-0.6592,2.1728
1189.0,0.3718,-2.2999,-0.9757,1.9704,-3.2701,-3.669
1194.0,0.3718,-2.2999,-0.9757,1.9704,-3.2701,-3.669
1199.0,-2.6214,-4.7309,6.6968,1.9704,-3.2701,-3.669
1204.0,-2.6214,-4.7309,6.6968,1.9704,-3.2701,-3.669
1209.0,-2.6214,-4.7309,6.6968,1.9704,-3.2701,-3.669
1214.0,-2.6214,-4.7309,6.6968,1.9704,-3.2701,-3.669
1219.0,-2.6214,-4.7309,6.6968,1.6912,-1.8101,-3.0245
1224.0,-2.6214,-2.5239,5.9528,1.6912,-1.8101,-3.0245
1229.0,-2.5784,-2.5239,5.9528,1.6912,-1.8101,-3.0245
1234.0,-2.5784,-2.5239,5.9528,1.6912,-1.8101,-3.0245
1239.0,-2.5784,-2.5239,5.9528,1.6912,-1.8101,-3.0245
1245.0,-2.5784,-2.5239,5.9528,1.6912,-1.8101,-3.0245
1249.0,-2.5784,-2.5239,5.9528,1.3033,-2.3092,-2.1662
1254.0,-4.5755,-1.1701,7.7868,1.3033,-2.3092,-2.1662
1259.0,-4.5755,-1.1701,7.7868,1.3033,-2.3092,-2.1662
1264.0,-4.5755,-1.1701,7.7868,1.3033,-2.3092,-2.1662
1269.0,-4.5755,-1.1701,7.7868,1.3033,-2.3092,-2.1662
1274.0,-4.5755,-1.1701,7.7868,1.3033,-2.3092,-2.1662
1279.0,-4.5755,-1.1701,7.7868,-1.4957,2.2283,-0.746
1284.0,-10.6913,-1.8756,1.4364,-1.4957,2.2283,-0.746
1289.0,-10.6913,-1.8756,1.4364,-1.4957,2.2283,-0.746
1294.0,-10.6913,-1.8756,1.4364,-1.4957,2.2283,-0.746
1299.0,-10.6913,-1.8756,1.4364,-1.4957,2.2283,-0.746
1304.0,-10.6913,-1.8756,1.4364,-1.4957,2.2283,-0.746
1309.0,-4.8724,-3.6155,-1.3075,-4.412,2.5014,-1.0526
1314.0,-4.8724,-3.6155,-1.3075,-4.412,2.5014,-1.0526
1319.0,-4.8724,-3.6155,-1.3075,-4.412,2.5014,-1.0526
1324.0,-4.8724,-3.6155,-1.3075,-4.412,2.5014,-1.0526
1329.0,-4.8724,-3.6155,-1.3075,-4.412,2.5014,-1.0526
1334.0,-4.8724,-3.6155,-0.8525,-4.412,2.5014,-1.0526
1339.0,-2.7795,-4.75,-0.8525,-5.1597,2.8606,-0.465
1344.0,-2.7795,-4.75,-0.8525,-5.1597,2.8606,-0.465
1350.0,-2.7795,-4.75,-0.8525,-5.1597,2.8606,-0.465
1354.0,-2.7795,-4.75,-0.8525,-5.1597,2.8606,-0.465
1359.0,-2.7795,-4.75,-0.8525,-5.1597,2.8606,-0.465
1364.0,-3.8427,-4.4211,-1.0231,-5.1597,2.8606,-0.465
1369.0,-3.8427,-4.4211,-1.0231,-5.1597,2.8606,-0.465
1374.0,-3.8427,-4.4211,-1.0231,-6.6374,2.5533,-0.0624
1379.0,-3.8427,-4.4211,-1.0231,-6.6374,2.5533,-0.0624
1384.0,-3.8427,-4.4211,-1.0231,-6.6374,2.5533,-0.0624
1389.0,-3.8427,-4.4211,-1.0231,-6.6374,2.5533,-0.0624
1394.0,-3.2297,-6.4518,-2.6154,-6.6374,2.5533,-0.0624
1399.0,-3.2297,-6.4518,-2.6154,-6.6374,2.5533,-0.0624
1404.0,-3.2297,-6.4518,-2.6154,-8.4504,1.1135,-0.2377
1409.0,-3.2297,-6.4518,-2.6154,-8.4504,1.1135,-0.2377
1414.0,-3.2297,-6.4518,-2.6154,-8.4504,1.1135,-0.2377
1419.0,-3.8475,-9.5359,-3.5348,-8.4504,1.1135,-0.2377
1424.0,-3.8475,-9.5359,-3.5348,-8.4504,1.1135,-0.2377
1430.0,-3.8475,-9.5359,-3.5348,-8.4504,1.1135,-0.2377
1434.0,-3.8475,-9.5359,-3.5348,-8.1132,-0.195,-0.8632
1439.0,-3.8475,-9.5359,-3.5348,-8.1132,-0.195,-0.8632
1444.0,-3.8475,-9.5359,-3.5348,-8.1132,-0.195,-0.8632
1449.0,-3.8954,-6.4184,1.1758,-8.1132,-0.195,-0.8632
1454.0,-3.8954,-6.4184,1.1758,-8.1132,-0.195,-0.8632
1459.0,-3.8954,-6.4184,1.1758,-8.1132,-0.195,-0.8632
1464.0,-3.8954,-6.4184,1.1758,-6.7803,0.3279,0.5405
1469.0,-3.8954,-6.4184,1.1758,-6.7803,0.3279,0.5405
1474.0,-3.1291,-7.7865,4.8249,-6.7803,0.3279,0.5405
1479.0,-3.1291,-7.7865,4.8249,-6.7803,0.3279,0.5405
1484.0,-3.1291,-7.7865,4.8249,-6.7803,0.3279,0.5405
1489.0,-3.1291,-7.7865,4.8249,-6.7803,0.3279,0.5405
1494.0,-3.1291,-7.7865,4.8249,-5.3344,2.499,2.1942
1499.0,-1.4194,-17.6156,5.9433,-5.3344,2.499,2.1942
1505.0,-1.4194,-17.6156,5.9433,-5.3344,2.499,2.1942
1509.0,-1.4194,-17.6156,5.9433,-5.3344,2.499,2.1942
1514.0,-1.4194,-17.6156,5.9433,-5.3344,2.499,2.1942
1522.0,-1.4194,-17.6156,5.9433,-5.3344,2.499,2.1942
1524.0,4.2702,-26.9014,1.6165,-4.277,5.2668,2.1624
1529.0,4.2702,-26.9014,1.6165,-4.277,5.2668,2.1624
1535.0,4.2702,-26.9014,1.6165,-4.277,5.2668,2.1624
1539.0,4.2702,-26.9014,1.6165,-4.277,5.2668,2.1624
1545.0,4.2702,-26.9014,1.6165,-4.277,5.2668,2.1624
1549.0,4.2702,-26.9014,1.6165,-4.277,5.2668,2.1624
1554.0,6.593,-19.6463,2.389,-0.8616,8.6156,-1.4137
1559.0,6.593,-19.6463,2.389,-0.8616,8.6156,-1.4137
1565.0,6.593,-19.6463,2.389,-0.8616,8.6156,-1.4137
1569.0,6.593,-19.6463,2.389,-0.8616,8.6156,-1.4137
1574.0,6.593,-19.6463,2.389,-0.8616,8.6156,-1.4137
1579.0,6.593,-19.6463,2.389,-0.8616,8.6156,-1.4137
1584.0,6.593,-19.6463,2.389,-0.8616,8.6156,-1.4137
1589.0,8.0154,-8.2822,-2.8713,-0.0955,8.0298,-2.008
1594.0,8.0154,-8.2822,-2.8713,-0.0955,8.0298,-2.008
1600.0,8.0154,-8.2822,-2.8713,-0.0955,8.0298,-2.008
1604.0,8.0154,-8.2822,-2.8713,-0.0955,8.0298,-2.008
1609.0,8.0154,-8.2822,-2.8713,-0.0955,8.0298,-2.008
1614.0,8.0154,-8.2822,-2.8713,-0.0955,8.0298,-2.008
1619.0,3.8248,-7.4385,0.3465,-2.2928,0.5375,-3.1827
1624.0,3.8248,-7.4385,0.3465,-2.2928,0.5375,-3.1827
1629.0,3.8248,-7.4385,0.3465,-2.2928,0.5375,-3.1827
1634.0,3.8248,-7.4385,0.3465,-2.2928,0.5375,-3.1827
1639.0,3.8248,-7.4385,0.3465,-2.2928,0.5375,-3.1827
1644.0,3.8248,-7.4385,0.3465,-2.2928,0.5375,-3.1827
1649.0,4.5432,-8.3203,0.01,0.6815,-3.1302,-0.0759
1654.0,4.5432,-8.3203,0.01,0.6815,-3.1302,-0.0759
1659.0,4.5432,-8.3203,0.01,0.6815,-3.1302,-0.0759
1664.0,4.5432,-8.3203,0.01,0.6815,-3.1302,-0.0759
1669.0,4.5432,-8.3203,0.01,0.6815,-3.1302,-0.0759
1674.0,4.9216,-6.7997,1.081,0.6815,-3.1302,-0.0759
1679.0,4.9216,-6.7997,1.081,0.6815,-3.1302,-0.0759
1684.0,4.9216,-6.7997,1.081,0.6906,-3.4924,3.7543
1690.0,4.9216,-6.7997,1.081,0.6906,-3.4924,3.7543
1694.0,4.9216,-6.7997,1.081,0.6906,-3.4924,3.7543
1699.0,4.9216,-6.7997,1.081,0.6906,-3.4924,3.7543
1704.0,4.7204,-9.3738,1.5028,0.6906,-3.4924,3.7543
1709.0,4.7204,-9.3738,1.5028,0.6906,-3.4924,3.7543
1715.0,4.7204,-9.3738,1.5028,0.5905,-3.1901,3.9791
1719.0,4.7204,-9.3738,1.5028,0.5905,-3.1901,3.9791
1724.0,4.7204,-9.3738,1.5028,0.5905,-3.1901,3.9791
1729.0,5.8363,-9.6741,-5.6864,0.5905,-3.1901,3.9791
1734.0,5.8363,-9.6741,-5.6864,0.5905,-3.1901,3.9791
1739.0,5.8363,-9.6741,-5.6864,0.5905,-3.1901,3.9791
1744.0,5.8363,-9.6741,-5.6864,0.3748,-3.6904,0.9541
1749.0,5.8363,-9.6741,-5.6864,0.3748,-3.6904,0.9541
1755.0,5.8363,-9.6741,-5.6864,0.3748,-3.6904,0.9541
1759.0,2.0002,-6.9666,1.1189,0.3748,-3.6904,0.9541
1764.0,2.0002,-6.9666,1.1189,0.3748,-3.6904,0.9541
1769.0,2.0002,-6.9666,1.1189,0.3748,-3.6904,0.9541
1774.0,2.0002,-6.9666,1.1189,-0.7846,0.4819,-7.0E-4
1779.0,2.0002,-6.9666,1.1189,-0.7846,0.4819,-7.0E-4
1786.0,2.1725,-11.7381,1.7303,-0.7846,0.4819,-7.0E-4
1789.0,2.1725,-11.7381,1.7303,-0.7846,0.4819,-7.0E-4
1795.0,2.1725,-11.7381,1.7303,-0.7846,0.4819,-7.0E-4
1800.0,2.1725,-11.7381,1.7303,-0.7846,0.4819,-7.0E-4
1804.0,2.1725,-11.7381,1.7303,-0.0564,2.4611,-0.4118
1809.0,2.1725,-11.7381,1.7303,-0.0564,2.4611,-0.4118
1814.0,2.6946,-10.3272,0.5882,-0.0564,2.4611,-0.4118
1820.0,2.6946,-10.3272,0.5882,-0.0564,2.4611,-0.4118
1825.0,2.6946,-10.3272,0.5882,-0.0564,2.4611,-0.4118
1829.0,2.6946,-10.3272,0.5882,-0.0564,2.4611,-0.4118
1834.0,2.6946,-10.3272,0.5882,0.2649,2.0714,-0.4802
1840.0,2.6946,-10.3272,0.5882,0.2649,2.0714,-0.4802
1844.0,2.8574,-10.7419,0.5834,0.2649,2.0714,-0.4802
1849.0,2.8574,-10.7419,0.5834,0.2649,2.0714,-0.4802
1854.0,2.8574,-10.7419,0.5834,0.2649,2.0714,-0.4802
1859.0,2.8574,-10.7419,0.5834,0.2649,2.0714,-0.4802
1864.0,2.8574,-10.7419,0.5834,0.6021,1.1874,0.3438
1869.0,3.4034,-11.2758,-0.8288,0.6021,1.1874,0.3438
1874.0,3.4034,-11.2758,-0.8288,0.6021,1.1874,0.3438
1879.0,3.4034,-11.2758,-0.8288,0.6021,1.1874,0.3438
1884.0,3.4034,-11.2758,-0.8288,0.6021,1.1874,0.3438
1889.0,3.4034,-11.2758,-0.8288,0.6021,1.1874,0.3438
1895.0,3.4034,-11.2758,-0.8288,0.6387,-0.421,0.2888
1899.0,2.8957,-11.2138,-0.644,0.6387,-0.421,0.2888
1904.0,2.8957,-11.2138,-0.644,0.6387,-0.421,0.2888
1909.0,2.8957,-11.2138,-0.644,0.6387,-0.421,0.2888
1915.0,2.8957,-11.2138,-0.644,0.6387,-0.421,0.2888
1920.0,2.8957,-11.2138,-0.644,0.6387,-0.421,0.2888
1924.0,2.4312,-11.9479,0.6877,0.6387,-0.421,0.2888
1929.0,2.4312,-11.9479,0.6877,0.8201,-1.0422,0.1392
1934.0,2.4312,-11.9479,0.6877,0.8201,-1.0422,0.1392
1939.0,2.4312,-11.9479,0.6877,0.8201,-1.0422,0.1392
1945.0,2.4312,-11.9479,0.6877,0.8201,-1.0422,0.1392
1949.0,3.2885,-12.8774,0.9625,0.8201,-1.0422,0.1392
1954.0,3.2885,-12.8774,0.9625,0.8201,-1.0422,0.1392
1959.0,3.2885,-12.8774,0.9625,0.8153,-1.1992,-0.2353
1965.0,3.2885,-12.8774,0.9625,0.8153,-1.1992,-0.2353
1969.0,3.2885,-12.8774,0.9625,0.8153,-1.1992,-0.2353
1974.0,3.2885,-12.8774,0.9625,0.8153,-1.1992,-0.2353
1980.0,4.3852,-10.9612,1.0526,0.8153,-1.1992,-0.2353
1985.0,4.3852,-10.9612,1.0526,0.8153,-1.1992,-0.2353
1989.0,4.3852,-10.9612,1.0526,0.8153,-1.1992,-0.2353
1995.0,4.3852,-10.9612,1.0526,0.7529,-1.4515,-0.4931
2000.0,4.3852,-10.9612,1.0526,0.7529,-1.4515,-0.4931
2004.0,5.4245,-8.2727,0.3133,0.7529,-1.4515,-0.4931
2009.0,5.4245,-8.2727,0.3133,0.7529,-1.4515,-0.4931
2014.0,5.4245,-8.2727,0.3133,0.7529,-1.4515,-0.4931
2019.0,5.4245,-8.2727,0.3133,0.7529,-1.4515,-0.4931
2024.0,5.4245,-8.2727,0.3133,0.7529,-1.4515,-0.4931
2031.0,7.7712,-5.4745,-1.7056,0.3528,-1.5468,-1.2041
2035.0,7.7712,-5.4745,-1.7056,0.3528,-1.5468,-1.2041
2040.0,7.7712,-5.4745,-1.7056,0.3528,-1.5468,-1.2041
2044.0,7.7712,-5.4745,-1.7056,0.3528,-1.5468,-1.2041
2049.0,7.7712,-5.4745,-1.7056,0.3528,-1.5468,-1.2041
2054.0,7.7712,-5.4745,-1.7056,0.3528,-1.5468,-1.2041
2061.0,7.8813,-5.6414,1.3322,-0.6563,-0.1577,-3.1662
2064.0,7.8813,-5.6414,1.3322,-0.6563,-0.1577,-3.1662
2069.0,7.8813,-5.6414,1.3322,-0.6563,-0.1577,-3.1662
2074.0,7.8813,-5.6414,1.3322,-0.6563,-0.1577,-3.1662
2079.0,7.8813,-5.6414,1.3322,-0.6563,-0.1577,-3.1662
2085.0,8.4512,-7.3813,0.2185,-0.6563,-0.1577,-3.1662
2090.0,8.4512,-7.3813,0.2185,-0.8054,-1.1577,-2.6061
2094.0,8.4512,-7.3813,0.2185,-0.8054,-1.1577,-2.6061
2099.0,8.4512,-7.3813,0.2185,-0.8054,-1.1577,-2.6061
2104.0,8.4512,-7.3813,0.2185,-0.8054,-1.1577,-2.6061
2109.0,8.4512,-7.3813,0.2185,-0.8054,-1.1577,-2.6061
2114.0,7.2587,-9.3929,-1.0184,-0.8054,-1.1577,-2.6061
2122.0,7.2587,-9.3929,-1.0184,-0.547,-2.319,-2.5755
2124.0,7.2587,-9.3929,-1.0184,-0.547,-2.319,-2.5755
2129.0,7.2587,-9.3929,-1.0184,-0.547,-2.319,-2.5755
2134.0,7.2587,-9.3929,-1.0184,-0.547,-2.319,-2.5755
2139.0,6.0135,-10.4416,-0.9568,-0.547,-2.319,-2.5755
2144.0,6.0135,-10.4416,-0.9568,-0.547,-2.319,-2.5755
2149.0,6.0135,-10.4416,-0.9568,-0.8634,-1.355,-2.9866
2154.0,6.0135,-10.4416,-0.9568,-0.8634,-1.355,-2.9866
2159.0,6.0135,-10.4416,-0.9568,-0.8634,-1.355,-2.9866
2164.0,6.0135,-10.4416,-0.9568,-0.8634,-1.355,-2.9866
2170.0,5.1754,-11.5761,-0.5587,-0.8634,-1.355,-2.9866
2175.0,5.1754,-11.5761,-0.5587,-0.8634,-1.355,-2.9866
2179.0,5.1754,-11.5761,-0.5587,-0.7993,-0.2756,-2.2652
2185.0,5.1754,-11.5761,-0.5587,-0.7993,-0.2756,-2.2652
2189.0,5.1754,-11.5761,-0.5587,-0.7993,-0.2756,-2.2652
2194.0,5.1754,-11.5761,-0.5587,-0.7993,-0.2756,-2.2652
2200.0,3.4178,-12.3388,-4.4542,-0.7993,-0.2756,-2.2652
2204.0,3.4178,-12.3388,-4.4542,-0.7993,-0.2756,-2.2652
2209.0,3.4178,-12.3388,-4.4542,-0.6533,-2.2377,-1.6195
2215.0,3.4178,-12.3388,-4.4542,-0.6533,-2.2377,-1.6195
2220.0,3.4178,-12.3388,-4.4542,-0.6533,-2.2377,-1.6195
2224.0,2.3976,-11.5332,-3.4163,-0.6533,-2.2377,-1.6195
2229.0,2.3976,-11.5332,-3.4163,-0.6533,-2.2377,-1.6195
2234.0,2.3976,-11.5332,-3.4163,-0.6533,-2.2377,-1.6195
2239.0,2.3976,-11.5332,-3.4163,-0.4327,-2.6696,-1.3391
2244.0,2.3976,-11.5332,-3.4163,-0.4327,-2.6696,-1.3391
2249.0,3.0202,-10.6751,-3.0799,-0.4327,-2.6696,-1.3391
2254.0,3.0202,-10.6751,-3.0799,-0.4327,-2.6696,-1.3391
2259.0,3.0202,-10.6751,-3.0799,-0.4327,-2.6696,-1.3391
2264.0,3.0202,-10.6751,-3.0799,-0.4327,-2.6696,-1.3391
2269.0,3.0202,-10.6751,-3.0799,-0.4327,-2.6696,-1.3391
2275.0,3.0202,-10.6751,-3.0799,-0.3882,-1.7423,-2.0746
2279.0,4.0691,-10.0126,-2.8571,-0.3882,-1.7423,-2.0746
2284.0,4.0691,-10.0126,-2.8571,-0.3882,-1.7423,-2.0746
2289.0,4.0691,-10.0126,-2.8571,-0.3882,-1.7423,-2.0746
2294.0,4.0691,-10.0126,-2.8571,-0.3882,-1.7423,-2.0746
2299.0,4.6678,-9.2737,-5.0276,-0.1236,0.2216,-3.713
2305.0,4.6678,-9.2737,-5.0276,-0.1236,0.2216,-3.713
2310.0,4.6678,-9.2737,-5.0276,-0.1236,0.2216,-3.713
2314.0,4.6678,-9.2737,-5.0276,-0.1236,0.2216,-3.713
2319.0,4.6678,-9.2737,-5.0276,-0.1236,0.2216,-3.713
2324.0,4.6678,-9.2737,-5.0276,-0.1236,0.2216,-3.713
2329.0,6.2865,-5.6843,-6.0655,-0.1236,0.2216,-3.713
2334.0,6.2865,-5.6843,-6.0655,-0.3087,0.5411,-4.6036
2340.0,6.2865,-5.6843,-6.0655,-0.3087,0.5411,-4.6036
2344.0,6.2865,-5.6843,-6.0655,-0.3087,0.5411,-4.6036
2349.0,6.2865,-5.6843,-6.0655,-0.3087,0.5411,-4.6036
2354.0,6.2865,-5.6843,-6.0655,-0.3087,0.5411,-4.6036
2359.0,5.5394,-3.4344,-5.8854,-0.3087,0.5411,-4.6036
2365.0,5.5394,-3.4344,-5.8854,-0.693,-0.6348,-3.1198
2369.0,5.5394,-3.4344,-5.8854,-0.693,-0.6348,-3.1198
2374.0,5.5394,-3.4344,-5.8854,-0.693,-0.6348,-3.1198
2379.0,5.5394,-3.4344,-5.8854,-0.693,-0.6348,-3.1198
2384.0,5.5394,-3.4344,-5.8854,-0.693,-0.6348,-3.1198
2390.0,2.5461,-3.1293,-5.6342,-0.693,-0.6348,-3.1198
2394.0,2.5461,-3.1293,-5.6342,-0.693,-0.6348,-3.1198
2399.0,2.5461,-3.1293,-5.6342,-0.2825,-1.9243,-0.9457
2404.0,2.5461,-3.1293,-5.6342,-0.2825,-1.9243,-0.9457
2409.0,2.5461,-3.1293,-5.6342,-0.2825,-1.9243,-0.9457
2414.0,0.276,-4.2876,-5.1698,-0.2825,-1.9243,-0.9457
2419.0,0.276,-4.2876,-5.1698,-0.2825,-1.9243,-0.9457
2424.0,0.276,-4.2876,-5.1698,-0.2825,-1.9243,-0.9457
2429.0,0.276,-4.2876,-5.1698,0.0468,-1.6947,-0.3685
2434.0,0.276,-4.2876,-5.1698,0.0468,-1.6947,-0.3685
2439.0,-0.4376,-4.9407,-4.6864,0.0468,-1.6947,-0.3685
2444.0,-0.4376,-4.9407,-4.6864,0.0468,-1.6947,-0.3685
2450.0,-0.4376,-4.9407,-4.6864,0.0468,-1.6947,-0.3685
2454.0,-0.4376,-4.9407,-4.6864,0.0468,-1.6947,-0.3685
2459.0,-0.4376,-4.9407,-4.6864,0.1262,-0.5878,-0.9231
2464.0,-0.4376,-4.9407,-4.6864,0.1262,-0.5878,-0.9231
2470.0,-0.155,-4.3448,-5.1745,0.1262,-0.5878,-0.9231
2474.0,-0.155,-4.3448,-5.1745,0.1262,-0.5878,-0.9231
2480.0,-0.155,-4.3448,-5.1745,0.1262,-0.5878,-0.9231
2484.0,-0.155,-4.3448,-5.1745,0.1262,-0.5878,-0.9231
2490.0,-0.155,-4.3448,-5.1745,0.202,0.2717,-1.275
2494.0,0.3383,-3.0292,-6.2171,0.202,0.2717,-1.275
2499.0,0.3383,-3.0292,-6.2171,0.202,0.2717,-1.275
2507.0,0.3383,-3.0292,-6.2171,0.202,0.2717,-1.275
2509.0,0.3383,-3.0292,-6.2171,0.202,0.2717,-1.275
2515.0,0.3383,-3.0292,-6.2171,0.202,0.2717,-1.275
2520.0,0.8507,-1.6087,-6.473,0.3345,0.4855,-0.9347
2524.0,0.8507,-1.6087,-6.473,0.3345,0.4855,-0.9347
2529.0,0.8507,-1.6087,-6.473,0.3345,0.4855,-0.9347
2534.0,0.8507,-1.6087,-6.473,0.3345,0.4855,-0.9347
2542.0,0.8507,-1.6087,-6.473,0.3345,0.4855,-0.9347
2544.0,0.8507,-1.6087,-6.473,0.3345,0.4855,-0.9347
2549.0,1.4877,-0.4265,-6.7526,0.3345,0.4855,-0.9347
2554.0,1.4877,-0.4265,-6.7526,0.3663,0.579,-0.3458
2559.0,1.4877,-0.4265,-6.7526,0.3663,0.579,-0.3458
2564.0,1.4877,-0.4265,-6.7526,0.3663,0.579,-0.3458
2569.0,1.4877,-0.4265,-6.7526,0.3663,0.579,-0.3458
2574.0,2.4072,0.0597,-7.5488,0.3663,0.579,-0.3458
2579.0,2.4072,0.0597,-7.5488,0.3663,0.579,-0.3458
2584.0,2.4072,0.0597,-7.5488,0.2832,0.1422,0.232
2589.0,2.4072,0.0597,-7.5488,0.2832,0.1422,0.232
2594.0,2.4072,0.0597,-7.5488,0.2832,0.1422,0.232
2599.0,2.4072,0.0597,-7.5488,0.2832,0.1422,0.232
2605.0,1.8134,-0.765,-6.838,0.2832,0.1422,0.232
2609.0,1.8134,-0.765,-6.838,0.2832,0.1422,0.232
2614.0,1.8134,-0.765,-6.838,0.1995,-0.0239,0.7354
2620.0,1.8134,-0.765,-6.838,0.1995,-0.0239,0.7354
2624.0,1.8134,-0.765,-6.838,0.1995,-0.0239,0.7354
2629.0,0.7454,-1.7088,-5.4636,0.1995,-0.0239,0.7354
2634.0,0.7454,-1.7088,-5.4636,0.1995,-0.0239,0.7354
2639.0,0.7454,-1.7088,-5.4636,0.1995,-0.0239,0.7354
2644.0,0.7454,-1.7088,-5.4636,0.2086,0.8374,1.1496
2649.0,0.7454,-1.7088,-5.4636,0.2086,0.8374,1.1496
2654.0,0.822,-2.0234,-5.6674,0.2086,0.8374,1.1496
2659.0,0.822,-2.0234,-5.6674,0.2086,0.8374,1.1496
2664.0,0.822,-2.0234,-5.6674,0.2086,0.8374,1.1496
2669.0,0.822,-2.0234,-5.6674,0.2086,0.8374,1.1496
2674.0,0.822,-2.0234,-5.6674,0.2086,0.8374,1.1496
2679.0,0.822,-2.0234,-5.6674,0.2086,0.8374,1.1496
2684.0,1.2099,-1.9757,-6.9564,0.2141,1.6767,1.4654
2689.0,1.2099,-1.9757,-6.9564,0.2141,1.6767,1.4654
2694.0,1.2099,-1.9757,-6.9564,0.2141,1.6767,1.4654
2699.0,1.2099,-1.9757,-6.9564,0.2141,1.6767,1.4654
2704.0,1.2099,-1.9757,-6.9564,0.2141,1.6767,1.4654
2709.0,4.4235,-1.3656,-9.3022,0.2141,1.6767,1.4654
2714.0,4.4235,-1.3656,-9.3022,-0.156,1.2222,1.9046
2719.0,4.4235,-1.3656,-9.3022,-0.156,1.2222,1.9046
2724.0,4.4235,-1.3656,-9.3022,-0.156,1.2222,1.9046
2729.0,4.4235,-1.3656,-9.3022,-0.156,1.2222,1.9046
2734.0,10.7357,-10.3653,-15.1266,-0.156,1.2222,1.9046
2739.0,10.7357,-10.3653,-15.1266,-0.156,1.2222,1.9046
2745.0,10.7357,-10.3653,-15.1266,-0.5788,-0.1485,1.3658
2749.0,10.7357,-10.3653,-15.1266,-0.5788,-0.1485,1.3658
2754.0,10.7357,-10.3653,-15.1266,-0.5788,-0.1485,1.3658
2760.0,10.7357,-10.3653,-15.1266,-0.5788,-0.1485,1.3658
2764.0,15.2471,-24.4274,-18.1975,-0.5788,-0.1485,1.3658
2769.0,15.2471,-24.4274,-18.1975,-0.5788,-0.1485,1.3658
2774.0,15.2471,-24.4274,-18.1975,-0.5788,-0.1485,1.3658
2779.0,15.2471,-24.4274,-18.1975,-0.0754,0.6877,0.3725
2784.0,15.2471,-24.4274,-18.1975,-0.0754,0.6877,0.3725
2789.0,9.275,-14.1311,-8.7288,-0.0754,0.6877,0.3725
2794.0,9.275,-14.1311,-8.7288,-0.0754,0.6877,0.3725
2800.0,9.275,-14.1311,-8.7288,-0.0754,0.6877,0.3725
2804.0,9.275,-14.1311,-8.7288,-0.0754,0.6877,0.3725
2809.0,9.275,-14.1311,-8.7288,0.1964,-1.5682,2.7971
2814.0,9.275,-14.1311,-8.7288,0.1964,-1.5682,2.7971
2819.0,3.6093,0.2027,2.7586,0.1964,-1.5682,2.7971
2824.0,3.6093,0.2027,2.7586,0.1964,-1.5682,2.7971
2829.0,3.6093,0.2027,2.7586,0.1964,-1.5682,2.7971
2834.0,3.6093,0.2027,2.7586,0.1964,-1.5682,2.7971
2840.0,3.6093,0.2027,2.7586,-0.3405,-1.0801,3.5301
2844.0,1.2578,2.5861,-1.6392,-0.3405,-1.0801,3.5301
2850.0,1.2578,2.5861,-1.6392,-0.3405,-1.0801,3.5301
2854.0,1.2578,2.5861,-1.6392,-0.3405,-1.0801,3.5301
2859.0,1.2578,2.5861,-1.6392,-0.3405,-1.0801,3.5301
2864.0,1.2578,2.5861,-1.6392,-0.3405,-1.0801,3.5301
2870.0,1.2578,1.833,0.2849,-0.2617,-0.1272,2.1386
2875.0,2.8239,1.833,0.2849,-0.2617,-0.1272,2.1386
2879.0,2.8239,1.833,0.2849,-0.2617,-0.1272,2.1386
2884.0,2.8239,1.833,0.2849,-0.2617,-0.1272,2.1386
2889.0,2.8239,1.833,0.2849,-0.2617,-0.1272,2.1386
2894.0,2.8239,1.833,0.2849,-0.2617,-0.1272,2.1386
2899.0,7.3641,-3.9254,1.9104,-1.5409,-0.9189,3.1972
2904.0,7.3641,-3.9254,1.9104,-1.5409,-0.9189,3.1972
2909.0,7.3641,-3.9254,1.9104,-1.5409,-0.9189,3.1972
2914.0,7.3641,-3.9254,1.9104,-1.5409,-0.9189,3.1972
2919.0,7.3641,-3.9254,1.9104,-1.5409,-0.9189,3.1972
2924.0,12.5748,-14.5076,-0.1227,-1.5409,-0.9189,3.1972
2929.0,12.5748,-14.5076,-0.1227,-1.7932,-0.9079,4.1679
2934.0,12.5748,-14.5076,-0.1227,-1.7932,-0.9079,4.1679
2939.0,12.5748,-14.5076,-0.1227,-1.7932,-0.9079,4.1679
2945.0,12.5748,-14.5076,-0.1227,-1.7932,-0.9079,4.1679
2950.0,12.5748,-14.5076,-0.1227,-1.7932,-0.9079,4.1679
2954.0,7.8526,-18.6309,-5.6058,-1.7932,-0.9079,4.1679
2959.0,7.8526,-18.6309,-5.6058,-1.7932,-0.9079,4.1679
2964.0,7.8526,-18.6309,-5.6058,0.5526,-1.0087,3.2345
2969.0,7.8526,-18.6309,-5.6058,0.5526,-1.0087,3.2345
2974.0,7.8526,-18.6309,-5.6058,0.5526,-1.0087,3.2345
2980.0,5.094,-9.8076,-0.6487,0.5526,-1.0087,3.2345
2984.0,5.094,-9.8076,-0.6487,0.5526,-1.0087,3.2345
2989.0,5.094,-9.8076,-0.6487,-0.1689,-1.6171,3.4513
2994.0,5.094,-9.8076,-0.6487,-0.1689,-1.6171,3.4513
3000.0,5.094,-9.8076,-0.6487,-0.1689,-1.6171,3.4513
3004.0,5.094,-9.8076,-0.6487,-0.1689,-1.6171,3.4513
3009.0,2.9484,-8.7541,0.9246,-0.1689,-1.6171,3.4513
3014.0,2.9484,-8.7541,0.9246,-0.1689,-1.6171,3.4513
3019.0,2.9484,-8.7541,0.9246,-0.5464,-1.9194,2.7537
3024.0,2.9484,-8.7541,0.9246,-0.5464,-1.9194,2.7537
3029.0,2.9484,-8.7541,0.9246,-0.5464,-1.9194,2.7537
3034.0,2.9484,-8.7541,0.9246,-0.5464,-1.9194,2.7537
3040.0,1.459,-8.9972,1.6165,-0.5464,-1.9194,2.7537
3044.0,1.459,-8.9972,1.6165,-0.5464,-1.9194,2.7537
3049.0,1.459,-8.9972,1.6165,-0.4804,-1.3483,1.5692
3055.0,1.459,-8.9972,1.6165,-0.4804,-1.3483,1.5692
3059.0,1.459,-8.9972,1.6165,-0.4804,-1.3483,1.5692
3065.0,-0.5094,-9.3214,1.8014,-0.4804,-1.3483,1.5692
3069.0,-0.5094,-9.3214,1.8014,-0.4804,-1.3483,1.5692
3075.0,-0.5094,-9.3214,1.8014,-0.4804,-1.3483,1.5692
3080.0,-0.5094,-9.3214,1.8014,-0.4804,-1.3483,1.5692
3084.0,-0.5094,-9.3214,1.8014,-0.933,1.1893,1.2589
3089.0,-0.5094,-9.3214,1.8014,-0.933,1.1893,1.2589
3094.0,-3.6511,-9.9315,-4.1651,-0.933,1.1893,1.2589
3103.0,-3.6511,-9.9315,-4.1651,-0.933,1.1893,1.2589
3104.0,-3.6511,-9.9315,-4.1651,-0.933,1.1893,1.2589
3109.0,-3.6511,-9.9315,-4.1651,-0.933,1.1893,1.2589
3114.0,-3.6511,-9.9315,-4.1651,-0.5958,1.8844,0.3004
3119.0,0.391,-10.5941,-0.4971,-0.5958,1.8844,0.3004
3124.0,0.391,-10.5941,-0.4971,-0.5958,1.8844,0.3004
3129.0,0.391,-10.5941,-0.4971,-0.5958,1.8844,0.3004
3134.0,0.391,-10.5941,-0.4971,-0.5958,1.8844,0.3004
3139.0,0.391,-10.5941,-0.4971,-0.5958,1.8844,0.3004
3145.0,0.391,-10.5941,-0.4971,0.0395,2.6028,0.0915
3150.0,1.5787,-9.9125,0.3228,0.0395,2.6028,0.0915
3154.0,1.5787,-9.9125,0.3228,0.0395,2.6028,0.0915
3159.0,1.5787,-9.9125,0.3228,0.0395,2.6028,0.0915
3164.0,1.5787,-9.9125,0.3228,0.0395,2.6028,0.0915
3169.0,1.5787,-9.9125,0.3228,0.0395,2.6028,0.0915
3174.0,1.4015,-7.6196,0.5218,0.2985,2.2241,0.3524
3181.0,1.4015,-7.6196,0.5218,0.2985,2.2241,0.3524
3184.0,1.4015,-7.6196,0.5218,0.2985,2.2241,0.3524
3191.0,1.4015,-7.6196,0.5218,0.2985,2.2241,0.3524
3194.0,1.4015,-7.6196,0.5218,0.2985,2.2241,0.3524
3203.0,1.3392,-5.9608,0.3512,0.3779,1.2003,0.7433
3207.0,1.3392,-5.9608,0.3512,0.3779,1.2003,0.7433
3210.0,1.3392,-5.9608,0.3512,0.3779,1.2003,0.7433
3214.0,1.3392,-5.9608,0.3512,0.3779,1.2003,0.7433
3219.0,1.3392,-5.9608,0.3512,0.3779,1.2003,0.7433
3224.0,1.3392,-5.9608,0.3512,0.3779,1.2003,0.7433
3230.0,2.4599,-7.2144,0.8583,0.3779,1.2003,0.7433
3235.0,2.4599,-7.2144,0.8583,0.5709,0.9431,1.367
3241.0,2.4599,-7.2144,0.8583,0.5709,0.9431,1.367
3245.0,2.4599,-7.2144,0.8583,0.5709,0.9431,1.367
3249.0,2.4599,-7.2144,0.8583,0.5709,0.9431,1.367
3254.0,2.4599,-7.2144,0.8583,0.5709,0.9431,1.367
3259.0,4.117,-10.9754,0.8346,0.5709,0.9431,1.367
3264.0,4.117,-10.9754,0.8346,0.5709,0.9431,1.367
3269.0,4.117,-10.9754,0.8346,0.7249,0.9926,2.0054
3274.0,4.117,-10.9754,0.8346,0.7249,0.9926,2.0054
3279.0,4.117,-10.9754,0.8346,0.7249,0.9926,2.0054
3284.0,7.2252,-14.1025,-6.0939,0.7249,0.9926,2.0054
3289.0,7.2252,-14.1025,-6.0939,0.7249,0.9926,2.0054
3294.0,7.2252,-14.1025,-6.0939,0.7249,0.9926,2.0054
3299.0,7.2252,-14.1025,-6.0939,0.7975,2.962,0.7641
3304.0,7.2252,-14.1025,-6.0939,0.7975,2.962,0.7641
3310.0,7.2252,-14.1025,-6.0939,0.7975,2.962,0.7641
3314.0,5.1898,-12.2291,-12.4111,0.7975,2.962,0.7641
3319.0,5.1898,-12.2291,-12.4111,0.7975,2.962,0.7641
3324.0,5.1898,-12.2291,-12.4111,0.7975,2.962,0.7641
3329.0,5.1898,-12.2291,-12.4111,0.1671,0.4513,-1.1473
3334.0,5.1898,-12.2291,-12.4111,0.1671,0.4513,-1.1473
3339.0,5.3861,-11.495,-1.6676,0.1671,0.4513,-1.1473
3344.0,5.3861,-11.495,-1.6676,0.1671,0.4513,-1.1473
3349.0,5.3861,-11.495,-1.6676,0.1671,0.4513,-1.1473
3355.0,5.3861,-11.495,-1.6676,0.1671,0.4513,-1.1473
3360.0,5.3861,-11.495,-1.6676,0.1671,0.4513,-1.1473
3364.0,5.3861,-11.495,-1.6676,0.2966,-2.5108,1.2021
3369.0,6.4781,-12.4293,0.6545,0.2966,-2.5108,1.2021
3374.0,6.4781,-12.4293,0.6545,0.2966,-2.5108,1.2021
3380.0,6.4781,-12.4293,0.6545,0.2966,-2.5108,1.2021
3384.0,6.4781,-12.4293,0.6545,0.2966,-2.5108,1.2021
3390.0,6.4781,-12.4293,0.6545,0.2966,-2.5108,1.2021
3394.0,7.479,-15.5373,1.0384,0.0743,-1.7588,0.0683
3399.0,7.479,-15.5373,1.0384,0.0743,-1.7588,0.0683
3404.0,7.479,-15.5373,1.0384,0.0743,-1.7588,0.0683
3409.0,7.479,-15.5373,1.0384,0.0743,-1.7588,0.0683
3414.0,7.479,-15.5373,1.0384,0.0743,-1.7588,0.0683
3420.0,7.479,-15.5373,1.0384,0.0743,-1.7588,0.0683
3424.0,7.139,-15.1655,2.4696,0.2331,-1.0972,-1.2121
3430.0,7.139,-15.1655,2.4696,0.2331,-1.0972,-1.2121
3435.0,7.139,-15.1655,2.4696,0.2331,-1.0972,-1.2121
3440.0,7.139,-15.1655,2.4696,0.2331,-1.0972,-1.2121
3444.0,7.139,-15.1655,2.4696,0.2331,-1.0972,-1.2121
3449.0,7.8622,-10.1889,1.1,0.2331,-1.0972,-1.2121
3454.0,7.8622,-10.1889,1.1,0.2331,-1.0972,-1.2121
3459.0,7.8622,-10.1889,1.1,-0.0809,0.2736,-1.5554
3464.0,7.8622,-10.1889,1.1,-0.0809,0.2736,-1.5554
3469.0,7.8622,-10.1889,1.1,-0.0809,0.2736,-1.5554
3474.0,7.8622,-10.1889,1.1,-0.0809,0.2736,-1.5554
3479.0,6.4685,-7.7102,-2.5965,-0.0809,0.2736,-1.5554
3484.0,6.4685,-7.7102,-2.5965,-0.0809,0.2736,-1.5554
3489.0,6.4685,-7.7102,-2.5965,-0.6642,0.3774,-3.0398
3494.0,6.4685,-7.7102,-2.5965,-0.6642,0.3774,-3.0398
3499.0,6.4685,-7.7102,-2.5965,-0.6642,0.3774,-3.0398
3504.0,5.6879,-10.4082,-5.1224,-0.6642,0.3774,-3.0398
3509.0,5.6879,-10.4082,-5.1224,-0.6642,0.3774,-3.0398
3514.0,5.6879,-10.4082,-5.1224,-0.6642,0.3774,-3.0398
3520.0,5.6879,-10.4082,-5.1224,-1.0228,-1.0147,-4.5914
3524.0,5.6879,-10.4082,-5.1224,-1.0228,-1.0147,-4.5914
3530.0,4.1888,-12.8154,-5.2883,-1.0228,-1.0147,-4.5914
3535.0,4.1888,-12.8154,-5.2883,-1.0228,-1.0147,-4.5914
3540.0,4.1888,-12.8154,-5.2883,-1.0228,-1.0147,-4.5914
3544.0,4.1888,-12.8154,-5.2883,-1.0228,-1.0147,-4.5914
3549.0,4.1888,-12.8154,-5.2883,-0.9776,-0.399,-4.8901
3554.0,4.1888,-12.8154,-5.2883,-0.9776,-0.399,-4.8901
3560.0,4.1745,-10.7562,-3.1889,-0.9776,-0.399,-4.8901
3564.0,4.1745,-10.7562,-3.1889,-0.9776,-0.399,-4.8901
3569.0,4.1745,-10.7562,-3.1889,-0.9776,-0.399,-4.8901
3574.0,4.1745,-10.7562,-3.1889,-0.9776,-0.399,-4.8901
3579.0,4.1745,-10.7562,-3.1889,-1.0277,-1.76,-2.5175
3584.0,5.0174,-8.9782,-0.9046,-1.0277,-1.76,-2.5175
3589.0,5.0174,-8.9782,-0.9046,-1.0277,-1.76,-2.5175
3594.0,5.0174,-8.9782,-0.9046,-1.0277,-1.76,-2.5175
3599.0,5.0174,-8.9782,-0.9046,-1.0277,-1.76,-2.5175
3604.0,5.0174,-8.9782,-0.9046,-1.0277,-1.76,-2.5175
3609.0,4.2224,-8.573,0.8109,-0.8451,-3.7484,-0.5334
3614.0,4.2224,-8.573,0.8109,-0.8451,-3.7484,-0.5334
3619.0,4.2224,-8.573,0.8109,-0.8451,-3.7484,-0.5334
3624.0,4.2224,-8.573,0.8109,-0.8451,-3.7484,-0.5334
3629.0,4.2224,-8.573,0.8109,-0.8451,-3.7484,-0.5334
3635.0,4.2224,-8.573,0.8109,-0.8451,-3.7484,-0.5334
3639.0,3.9158,-10.0412,-0.9331,-0.8451,-3.7484,-0.5334
3644.0,3.9158,-10.0412,-0.9331,0.2258,-4.1119,-0.578
3649.0,3.9158,-10.0412,-0.9331,0.2258,-4.1119,-0.578
3654.0,3.9158,-10.0412,-0.9331,0.2258,-4.1119,-0.578
3659.0,3.7051,-10.4749,-0.6582,0.2258,-4.1119,-0.578
3664.0,3.7051,-10.4749,-0.6582,0.2258,-4.1119,-0.578
3669.0,3.7051,-10.4749,-0.6582,0.2258,-4.1119,-0.578
3674.0,3.7051,-10.4749,-0.6582,0.6173,-1.2383,-2.9665
3681.0,3.7051,-10.4749,-0.6582,0.6173,-1.2383,-2.9665
3684.0,3.7051,-10.4749,-0.6582,0.6173,-1.2383,-2.9665
3689.0,2.8143,-8.43,-0.9757,0.6173,-1.2383,-2.9665
3694.0,2.8143,-8.43,-0.9757,0.6173,-1.2383,-2.9665
3700.0,2.8143,-8.43,-0.9757,0.6173,-1.2383,-2.9665
3704.0,2.8143,-8.43,-0.9757,0.5563,0.868,-4.6897
3709.0,2.8143,-8.43,-0.9757,0.5563,0.868,-4.6897
3714.0,2.8143,-8.43,-0.9757,0.5563,0.868,-4.6897
3719.0,2.8095,-5.3077,-2.9756,0.5563,0.868,-4.6897
3724.0,2.8095,-5.3077,-2.9756,0.5563,0.868,-4.6897
3729.0,2.8095,-5.3077,-2.9756,0.5563,0.868,-4.6897
3734.0,2.8095,-5.3077,-2.9756,0.6106,0.5613,-4.9304
3740.0,2.8095,-5.3077,-2.9756,0.6106,0.5613,-4.9304
3744.0,2.7999,-3.3438,-2.2316,0.6106,0.5613,-4.9304
3749.0,2.7999,-3.3438,-2.2316,0.6106,0.5613,-4.9304
3754.0,2.7999,-3.3438,-2.2316,0.6106,0.5613,-4.9304
3759.0,2.7999,-3.3438,-2.2316,0.6106,0.5613,-4.9304
3764.0,2.7999,-3.3438,-2.2316,0.4769,0.3383,-3.4662
3769.0,2.7999,-3.3438,-2.2316,0.4769,0.3383,-3.4662
3774.0,2.3545,-1.9424,-1.0563,0.4769,0.3383,-3.4662
3779.0,2.3545,-1.9424,-1.0563,0.4769,0.3383,-3.4662
3785.0,2.3545,-1.9424,-1.0563,0.4769,0.3383,-3.4662
3789.0,2.3545,-1.9424,-1.0563,0.4769,0.3383,-3.4662
3794.0,2.3545,-1.9424,-1.0563,0.2747,-0.1033,-1.4088
3799.0,1.004,-0.8984,-0.9852,0.2747,-0.1033,-1.4088
3804.0,1.004,-0.8984,-0.9852,0.2747,-0.1033,-1.4088
3809.0,1.004,-0.8984,-0.9852,0.2747,-0.1033,-1.4088
3815.0,1.004,-0.8984,-0.9852,0.2747,-0.1033,-1.4088
3819.0,1.004,-0.8984,-0.9852,0.2747,-0.1033,-1.4088
3824.0,1.004,-0.8984,-0.9852,0.2747,-0.1033,-1.4088
3829.0,0.4436,-1.5133,-2.5159,0.2869,0.3273,-0.3074
3834.0,0.4436,-1.5133,-2.5159,0.2869,0.3273,-0.3074
3840.0,0.4436,-1.5133,-2.5159,0.2869,0.3273,-0.3074
3845.0,0.4436,-1.5133,-2.5159,0.2869,0.3273,-0.3074
3849.0,0.4436,-1.5133,-2.5159,0.2869,0.3273,-0.3074
3855.0,1.8517,-2.5763,-4.0182,0.2869,0.3273,-0.3074
3859.0,1.8517,-2.5763,-4.0182,0.4298,0.7812,0.6883
3864.0,1.8517,-2.5763,-4.0182,0.4298,0.7812,0.6883
3870.0,1.8517,-2.5763,-4.0182,0.4298,0.7812,0.6883
3874.0,1.8517,-2.5763,-4.0182,0.4298,0.7812,0.6883
3879.0,1.8517,-2.5763,-4.0182,0.4298,0.7812,0.6883
3884.0,3.14,-0.5076,-4.7196,0.4298,0.7812,0.6883
3890.0,3.14,-0.5076,-4.7196,0.4237,1.1752,1.7702
3894.0,3.14,-0.5076,-4.7196,0.4237,1.1752,1.7702
3899.0,3.14,-0.5076,-4.7196,0.4237,1.1752,1.7702
3904.0,3.14,-0.5076,-4.7196,0.4237,1.1752,1.7702
3909.0,0.9322,-1.4228,-6.582,0.4237,1.1752,1.7702
3914.0,0.9322,-1.4228,-6.582,0.4237,1.1752,1.7702
3919.0,0.9322,-1.4228,-6.582,0.5355,1.6126,2.9944
3924.0,0.9322,-1.4228,-6.582,0.5355,1.6126,2.9944
3930.0,0.9322,-1.4228,-6.582,0.5355,1.6126,2.9944
3935.0,0.9322,-1.4228,-6.582,0.5355,1.6126,2.9944
3939.0,-1.6205,-3.0244,-10.269,0.5355,1.6126,2.9944
3944.0,-1.6205,-3.0244,-10.269,0.5355,1.6126,2.9944
3949.0,-1.6205,-3.0244,-10.269,0.5269,0.6297,3.9443
3954.0,-1.6205,-3.0244,-10.269,0.5269,0.6297,3.9443
3959.0,-1.6205,-3.0244,-10.269,0.5269,0.6297,3.9443
3964.0,-1.6205,-3.0244,-10.269,0.5269,0.6297,3.9443
3969.0,7.57,-3.1579,-4.421,0.5269,0.6297,3.9443
3975.0,7.57,-3.1579,-4.421,0.5269,0.6297,3.9443
3979.0,7.57,-3.1579,-4.421,-1.6783,-1.6213,3.8594
3984.0,7.57,-3.1579,-4.421,-1.6783,-1.6213,3.8594
3989.0,7.57,-3.1579,-4.421,-1.6783,-1.6213,3.8594
3995.0,22.6465,-23.9841,-11.0036,-1.6783,-1.6213,3.8594
3999.0,22.6465,-23.9841,-11.0036,-1.6783,-1.6213,3.8594
4006.0,22.6465,-23.9841,-11.0036,-1.6783,-1.6213,3.8594
4010.0,22.6465,-23.9841,-11.0036,-1.6783,-1.6213,3.8594
4014.0,22.6465,-23.9841,-11.0036,-1.4761,-0.4747,0.9156
4019.0,22.6465,-23.9841,-11.0036,-1.4761,-0.4747,0.9156
4024.0,15.5968,-21.5864,-5.2456,-1.4761,-0.4747,0.9156
4030.0,15.5968,-21.5864,-5.2456,-1.4761,-0.4747,0.9156
4034.0,15.5968,-21.5864,-5.2456,-1.4761,-0.4747,0.9156
4040.0,15.5968,-21.5864,-5.2456,-1.4761,-0.4747,0.9156
4045.0,15.5968,-21.5864,-5.2456,0.2142,-1.049,3.3346
4049.0,15.5968,-21.5864,-5.2456,0.2142,-1.049,3.3346
4054.0,2.3306,-1.5944,-0.3928,0.2142,-1.049,3.3346
4059.0,2.3306,-1.5944,-0.3928,0.2142,-1.049,3.3346
4064.0,2.3306,-1.5944,-0.3928,0.2142,-1.049,3.3346
4069.0,2.3306,-1.5944,-0.3928,0.2142,-1.049,3.3346
4074.0,2.3306,-1.5944,-0.3928,-0.4144,-0.7404,4.1459
4080.0,-0.9931,0.298,-1.7766,-0.4144,-0.7404,4.1459
4084.0,-0.9931,0.298,-1.7766,-0.4144,-0.7404,4.1459
4089.0,-0.9931,0.298,-1.7766,-0.4144,-0.7404,4.1459
4094.0,-0.9931,0.298,-1.7766,-0.4144,-0.7404,4.1459
4099.0,-0.9931,0.298,-1.7766,-0.4144,-0.7404,4.1459
4104.0,-0.7249,0.2075,0.4792,-0.2947,-1.6091,3.4495
4109.0,-0.7249,0.2075,0.4792,-0.2947,-1.6091,3.4495
4114.0,-0.7249,0.2075,0.4792,-0.2947,-1.6091,3.4495
4119.0,-0.7249,0.2075,0.4792,-0.2947,-1.6091,3.4495
4124.0,-0.7249,0.2075,0.4792,-0.2947,-1.6091,3.4495
4129.0,-0.7249,0.2075,0.4792,-0.2947,-1.6091,3.4495
4134.0,2.2157,-4.2447,2.7255,-0.2947,-1.6091,3.4495
4140.0,2.2157,-4.2447,2.7255,-0.2617,-0.8388,2.9699
4145.0,2.2157,-4.2447,2.7255,-0.2617,-0.8388,2.9699
4149.0,2.2157,-4.2447,2.7255,-0.2617,-0.8388,2.9699
4154.0,2.2157,-4.2447,2.7255,-0.2617,-0.8388,2.9699
4159.0,7.1773,-14.031,3.1709,-0.2617,-0.8388,2.9699
4164.0,7.1773,-14.031,3.1709,-0.2617,-0.8388,2.9699
4169.0,7.1773,-14.031,3.1709,-0.2446,0.1208,1.7751
4174.0,7.1773,-14.031,3.1709,-0.2446,0.1208,1.7751
4179.0,7.1773,-14.031,3.1709,-0.2446,0.1208,1.7751
4184.0,4.6629,-20.6473,2.6402,-0.2446,0.1208,1.7751
4190.0,4.6629,-20.6473,2.6402,-0.2446,0.1208,1.7751
4195.0,4.6629,-20.6473,2.6402,-0.2446,0.1208,1.7751
4200.0,4.6629,-20.6473,2.6402,-0.4535,2.0866,1.3102
4204.0,4.6629,-20.6473,2.6402,-0.4535,2.0866,1.3102
4209.0,4.6629,-20.6473,2.6402,-0.4535,2.0866,1.3102
4214.0,4.6629,-20.6473,2.6402,-0.4535,2.0866,1.3102
4219.0,-4.2737,-12.7964,-9.6103,-0.4535,2.0866,1.3102
4224.0,-4.2737,-12.7964,-9.6103,-0.4535,2.0866,1.3102
4229.0,-4.2737,-12.7964,-9.6103,-0.0564,0.4385,1.174
4234.0,-4.2737,-12.7964,-9.6103,-0.0564,0.4385,1.174
4239.0,-4.2737,-12.7964,-9.6103,-0.0564,0.4385,1.174
4244.0,1.1668,-7.8103,0.0858,-0.0564,0.4385,1.174
4249.0,1.1668,-7.8103,0.0858,-0.0564,0.4385,1.174
4254.0,1.1668,-7.8103,0.0858,-0.0564,0.4385,1.174
4259.0,1.1668,-7.8103,0.0858,-0.0564,0.4385,1.174
4264.0,1.1668,-7.8103,0.0858,0.0712,0.772,1.1367
4269.0,2.0145,-6.2658,0.3654,0.0712,0.772,1.1367
4274.0,2.0145,-6.2658,0.3654,0.0712,0.772,1.1367
4279.0,2.0145,-6.2658,0.3654,0.0712,0.772,1.1367
4285.0,2.0145,-6.2658,0.3654,0.0712,0.772,1.1367
4289.0,2.0145,-6.2658,0.3654,0.0712,0.772,1.1367
4294.0,2.0145,-6.2658,0.3654,0.2441,1.5625,0.904
4299.0,3.049,-6.3135,0.119,0.2441,1.5625,0.904
4304.0,3.049,-6.3135,0.119,0.2441,1.5625,0.904
4309.0,3.049,-6.3135,0.119,0.2441,1.5625,0.904
4314.0,3.049,-6.3135,0.119,0.2441,1.5625,0.904
4320.0,3.049,-6.3135,0.119,0.2441,1.5625,0.904
4325.0,3.3411,-7.4385,-0.1322,0.0089,1.5778,0.7134
4329.0,3.3411,-7.4385,-0.1322,0.0089,1.5778,0.7134
4334.0,3.3411,-7.4385,-0.1322,0.0089,1.5778,0.7134
4339.0,3.3411,-7.4385,-0.1322,0.0089,1.5778,0.7134
4345.0,3.3411,-7.4385,-0.1322,0.0089,1.5778,0.7134
4350.0,2.7569,-8.1249,0.5076,0.0089,1.5778,0.7134
4354.0,2.7569,-8.1249,0.5076,0.1842,0.8741,0.5735
4359.0,2.7569,-8.1249,0.5076,0.1842,0.8741,0.5735
4365.0,2.7569,-8.1249,0.5076,0.1842,0.8741,0.5735
4370.0,2.7569,-8.1249,0.5076,0.1842,0.8741,0.5735
4374.0,2.7569,-8.1249,0.5076,0.1842,0.8741,0.5735
4379.0,2.6898,-8.7589,0.536,0.1842,0.8741,0.5735
4384.0,2.6898,-8.7589,0.536,0.5899,0.2253,0.6798
4390.0,2.6898,-8.7589,0.536,0.5899,0.2253,0.6798
4394.0,2.6898,-8.7589,0.536,0.5899,0.2253,0.6798
4399.0,2.6898,-8.7589,0.536,0.5899,0.2253,0.6798
4404.0,3.6572,-10.2223,0.9294,0.5899,0.2253,0.6798
4409.0,3.6572,-10.2223,0.9294,0.5899,0.2253,0.6798
4414.0,3.6572,-10.2223,0.9294,0.8134,0.4794,1.2027
4419.0,3.6572,-10.2223,0.9294,0.8134,0.4794,1.2027
4424.0,3.6572,-10.2223,0.9294,0.8134,0.4794,1.2027
4429.0,5.7549,-12.7201,0.8488,0.8134,0.4794,1.2027
4434.0,5.7549,-12.7201,0.8488,0.8134,0.4794,1.2027
4442.0,5.7549,-12.7201,0.8488,0.8134,0.4794,1.2027
4444.0,5.7549,-12.7201,0.8488,0.8134,0.4794,1.2027
4449.0,5.7549,-12.7201,0.8488,0.5581,3.3212,1.0207
4454.0,5.7549,-12.7201,0.8488,0.5581,3.3212,1.0207
4459.0,3.0538,-12.3769,-9.615,0.5581,3.3212,1.0207
4465.0,3.0538,-12.3769,-9.615,0.5581,3.3212,1.0207
4469.0,3.0538,-12.3769,-9.615,0.5581,3.3212,1.0207
4474.0,3.0538,-12.3769,-9.615,0.2184,1.094,-1.3526
4479.0,3.0538,-12.3769,-9.615,0.2184,1.094,-1.3526
4485.0,4.3852,-12.3054,-2.4828,0.2184,1.094,-1.3526
4490.0,4.3852,-12.3054,-2.4828,0.2184,1.094,-1.3526
4494.0,4.3852,-12.3054,-2.4828,0.2184,1.094,-1.3526
4499.0,4.3852,-12.3054,-2.4828,0.2184,1.094,-1.3526
4505.0,4.3852,-12.3054,-2.4828,0.252,-0.9243,0.8808
4509.0,4.3852,-12.3054,-2.4828,0.252,-0.9243,0.8808
4514.0,5.889,-12.2434,-0.227,0.252,-0.9243,0.8808
4519.0,5.889,-12.2434,-0.227,0.252,-0.9243,0.8808
4524.0,5.889,-12.2434,-0.227,0.252,-0.9243,0.8808
4529.0,5.889,-12.2434,-0.227,0.252,-0.9243,0.8808
4534.0,5.889,-12.2434,-0.227,0.252,-0.9243,0.8808
4539.0,6.9905,-11.495,-1.8525,0.2252,-0.2316,0.601
4544.0,6.9905,-11.495,-1.8525,0.2252,-0.2316,0.601
4549.0,6.9905,-11.495,-1.8525,0.2252,-0.2316,0.601
4554.0,6.9905,-11.495,-1.8525,0.2252,-0.2316,0.601
4559.0,6.9905,-11.495,-1.8525,0.2252,-0.2316,0.601
4564.0,6.9905,-11.495,-1.8525,0.2252,-0.2316,0.601
4570.0,5.7693,-13.4876,-1.1463,-0.2922,0.0439,-1.096
4574.0,5.7693,-13.4876,-1.1463,-0.2922,0.0439,-1.096
4579.0,5.7693,-13.4876,-1.1463,-0.2922,0.0439,-1.096
4584.0,5.7693,-13.4876,-1.1463,-0.2922,0.0439,-1.096
4589.0,5.7693,-13.4876,-1.1463,-0.2922,0.0439,-1.096
4594.0,5.8698,-13.9738,0.4602,-0.2922,0.0439,-1.096
4600.0,5.8698,-13.9738,0.4602,-0.324,-1.3159,-0.9854
4604.0,5.8698,-13.9738,0.4602,-0.324,-1.3159,-0.9854
4609.0,5.8698,-13.9738,0.4602,-0.324,-1.3159,-0.9854
4614.0,5.8698,-13.9738,0.4602,-0.324,-1.3159,-0.9854
4619.0,4.9982,-12.2673,0.3702,-0.324,-1.3159,-0.9854
4625.0,4.9982,-12.2673,0.3702,-0.324,-1.3159,-0.9854
4629.0,4.9982,-12.2673,0.3702,-0.4217,-1.2908,-1.0655
4634.0,4.9982,-12.2673,0.3702,-0.4217,-1.2908,-1.0655
4639.0,4.9982,-12.2673,0.3702,-0.4217,-1.2908,-1.0655
4644.0,4.9982,-12.2673,0.3702,-0.4217,-1.2908,-1.0655
4649.0,3.8919,-10.0316,-0.8194,-0.4217,-1.2908,-1.0655
4654.0,3.8919,-10.0316,-0.8194,-0.4217,-1.2908,-1.0655
4659.0,3.8919,-10.0316,-0.8194,-0.3264,-0.9451,-2.2255
4664.0,3.8919,-10.0316,-0.8194,-0.3264,-0.9451,-2.2255
4670.0,3.8919,-10.0316,-0.8194,-0.3264,-0.9451,-2.2255
4674.0,4.299,-9.2499,-2.5775,-0.3264,-0.9451,-2.2255
4679.0,4.299,-9.2499,-2.5775,-0.3264,-0.9451,-2.2255
4684.0,4.299,-9.2499,-2.5775,-0.3264,-0.9451,-2.2255
4689.0,4.299,-9.2499,-2.5775,-0.3264,-0.9451,-2.2255
4694.0,4.299,-9.2499,-2.5775,-0.4688,-0.1241,-3.57
4699.0,4.2894,-11.1232,-6.0702,-0.4688,-0.1241,-3.57
4705.0,4.2894,-11.1232,-6.0702,-0.4688,-0.1241,-3.57
4709.0,4.2894,-11.1232,-6.0702,-0.4688,-0.1241,-3.57
4715.0,4.2894,-11.1232,-6.0702,-0.4688,-0.1241,-3.57
4720.0,4.2894,-11.1232,-6.0702,-0.4688,-0.1241,-3.57
4724.0,4.2894,-11.1232,-6.0702,-0.4688,-0.1241,-3.57
4729.0,4.0116,-11.843,-6.4825,-0.5567,-0.8956,-4.9433
4734.0,4.0116,-11.843,-6.4825,-0.5567,-0.8956,-4.9433
4740.0,4.0116,-11.843,-6.4825,-0.5567,-0.8956,-4.9433
4744.0,4.0116,-11.843,-6.4825,-0.5567,-0.8956,-4.9433
4749.0,4.0116,-11.843,-6.4825,-0.5567,-0.8956,-4.9433
4754.0,4.8066,-9.1736,-1.0658,-0.5567,-0.8956,-4.9433
4759.0,4.8066,-9.1736,-1.0658,-1.0149,-2.198,-3.0954
4764.0,4.8066,-9.1736,-1.0658,-1.0149,-2.198,-3.0954
4770.0,4.8066,-9.1736,-1.0658,-1.0149,-2.198,-3.0954
4774.0,4.8066,-9.1736,-1.0658,-1.0149,-2.198,-3.0954
4779.0,3.3603,-8.6349,2.0525,-1.0149,-2.198,-3.0954
4785.0,3.3603,-8.6349,2.0525,-1.0149,-2.198,-3.0954
4789.0,3.3603,-8.6349,2.0525,-0.6306,-3.2511,-0.3465
4794.0,3.3603,-8.6349,2.0525,-0.6306,-3.2511,-0.3465
4799.0,3.3603,-8.6349,2.0525,-0.6306,-3.2511,-0.3465
4804.0,3.3603,-8.6349,2.0525,-0.6306,-3.2511,-0.3465
4809.0,3.9494,-9.5454,2.3558,-0.6306,-3.2511,-0.3465
4814.0,3.9494,-9.5454,2.3558,-0.6306,-3.2511,-0.3465
4819.0,3.9494,-9.5454,2.3558,-0.6306,-3.2511,-0.3465
4824.0,3.9494,-9.5454,2.3558,0.679,-3.526,-0.5432
4829.0,3.9494,-9.5454,2.3558,0.679,-3.526,-0.5432
4834.0,3.4896,-11.1089,-1.7387,0.679,-3.526,-0.5432
4839.0,3.4896,-11.1089,-1.7387,0.679,-3.526,-0.5432
4844.0,3.4896,-11.1089,-1.7387,0.679,-3.526,-0.5432
4850.0,3.4896,-11.1089,-1.7387,0.679,-3.526,-0.5432
4854.0,3.4896,-11.1089,-1.7387,0.6858,-0.6696,-3.41
4859.0,2.4647,-9.4453,-0.0469,0.6858,-0.6696,-3.41
4864.0,2.4647,-9.4453,-0.0469,0.6858,-0.6696,-3.41
4870.0,2.4647,-9.4453,-0.0469,0.6858,-0.6696,-3.41
4874.0,2.4647,-9.4453,-0.0469,0.6858,-0.6696,-3.41
4879.0,2.4647,-9.4453,-0.0469,0.6858,-0.6696,-3.41
4885.0,2.4647,-9.4453,-0.0469,0.6858,-0.6696,-3.41
4889.0,2.527,-6.7807,-3.0467,0.7835,1.7293,-5.1644
4894.0,2.527,-6.7807,-3.0467,0.7835,1.7293,-5.1644
4899.0,2.527,-6.7807,-3.0467,0.7835,1.7293,-5.1644
4904.0,2.527,-6.7807,-3.0467,0.7835,1.7293,-5.1644
4909.0,2.527,-6.7807,-3.0467,0.7835,1.7293,-5.1644
4914.0,2.867,-4.7023,-4.5964,0.7835,1.7293,-5.1644
4919.0,2.867,-4.7023,-4.5964,0.5947,1.1111,-4.7142
4925.0,2.867,-4.7023,-4.5964,0.5947,1.1111,-4.7142
4930.0,2.867,-4.7023,-4.5964,0.5947,1.1111,-4.7142
4934.0,2.867,-4.7023,-4.5964,0.5947,1.1111,-4.7142
4939.0,2.867,-2.8385,-2.933,0.5947,1.1111,-4.7142
4944.0,2.867,-2.8385,-2.933,0.5947,1.1111,-4.7142
4950.0,2.867,-2.8385,-2.933,0.0395,-0.4509,-2.4643
4954.0,2.867,-2.8385,-2.933,0.0395,-0.4509,-2.4643
4959.0,2.867,-2.8385,-2.933,0.0395,-0.4509,-2.4643
4965.0,2.4408,-2.0186,-0.6535,0.0395,-0.4509,-2.4643
4969.0,2.4408,-2.0186,-0.6535,0.0395,-0.4509,-2.4643
4974.0,2.4408,-2.0186,-0.6535,0.0395,-0.4509,-2.4643
4981.0,2.4408,-2.0186,-0.6535,0.0285,-0.8076,-0.4766
4985.0,2.4408,-2.0186,-0.6535,0.0285,-0.8076,-0.4766
4990.0,2.4408,-2.0186,-0.6535,0.0285,-0.8076,-0.4766
4995.0,1.7319,-1.785,-1.2174,0.0285,-0.8076,-0.4766
4999.0,1.7319,-1.785,-1.2174,0.0285,-0.8076,-0.4766
5004.0,1.7319,-1.785,-1.2174,0.0285,-0.8076,-0.4766
5010.0,1.7319,-1.785,-1.2174,0.0285,-0.8076,-0.4766
5015.0,1.7319,-1.785,-1.2174,0.307,0.2699,0.1679
5019.0,1.2051,-2.5287,-2.9898,0.307,0.2699,0.1679
5025.0,1.2051,-2.5287,-2.9898,0.307,0.2699,0.1679
5029.0,1.2051,-2.5287,-2.9898,0.307,0.2699,0.1679
5034.0,1.2051,-2.5287,-2.9898,0.307,0.2699,0.1679
5039.0,1.2051,-2.5287,-2.9898,0.307,0.2699,0.1679
5044.0,1.2051,-2.5287,-2.9898,0.1421,1.0701,0.7696
5049.0,2.1534,-0.6029,-4.5205,0.1421,1.0701,0.7696
5054.0,2.1534,-0.6029,-4.5205,0.1421,1.0701,0.7696
5059.0,2.1534,-0.6029,-4.5205,0.1421,1.0701,0.7696
5064.0,2.1534,-0.6029,-4.5205,0.1421,1.0701,0.7696
5069.0,2.1534,-0.6029,-4.5205,0.1421,1.0701,0.7696
5074.0,2.1534,-0.6029,-4.5205,-0.1133,1.4709,1.7531
5079.0,2.1534,-0.6029,-4.5205,-0.1133,1.4709,1.7531
5084.0,2.1534,-0.6029,-4.5205,-0.1133,1.4709,1.7531
5089.0,2.1534,-0.6029,-4.5205,-0.1133,1.4709,1.7531
5094.0,0.7023,-0.6935,-5.928,-0.1133,1.4709,1.7531
5099.0,0.7023,-0.6935,-5.928,-0.1133,1.4709,1.7531
5104.0,0.7023,-0.6935,-5.928,0.1684,1.9028,2.874
5109.0,0.7023,-0.6935,-5.928,0.1684,1.9028,2.874
5115.0,0.7023,-0.6935,-5.928,0.1684,1.9028,2.874
5120.0,-3.5506,-7.0905,-13.1409,0.1684,1.9028,2.874
5125.0,-3.5506,-7.0905,-13.1409,0.1684,1.9028,2.874
5129.0,-3.5506,-7.0905,-13.1409,0.1684,1.9028,2.874
5134.0,-3.5506,-7.0905,-13.1409,-0.1596,-0.4723,3.7506
5139.0,-3.5506,-7.0905,-13.1409,-0.1596,-0.4723,3.7506
5144.0,-3.5506,-7.0905,-13.1409,-0.1596,-0.4723,3.7506
5149.0,10.6926,-6.6377,-2.715,-0.1596,-0.4723,3.7506
5155.0,10.6926,-6.6377,-2.715,-0.1596,-0.4723,3.7506
5159.0,10.6926,-6.6377,-2.715,-0.1596,-0.4723,3.7506
5164.0,10.6926,-6.6377,-2.715,-2.44,-2.592,3.6584
5169.0,10.6926,-6.6377,-2.715,-2.44,-2.592,3.6584
5174.0,22.7518,-17.5822,-2.6676,-2.44,-2.592,3.6584
5179.0,22.7518,-17.5822,-2.6676,-2.44,-2.592,3.6584
5184.0,22.7518,-17.5822,-2.6676,-2.44,-2.592,3.6584
5189.0,22.7518,-17.5822,-2.6676,-2.44,-2.592,3.6584
5194.0,22.7518,-17.5822,-2.6676,-0.7155,1.1062,0.9131
5199.0,13.1495,-15.6136,-11.9798,-0.7155,1.1062,0.9131
5204.0,13.1495,-15.6136,-11.9798,-0.7155,1.1062,0.9131
5209.0,13.1495,-15.6136,-11.9798,-0.7155,1.1062,0.9131
5214.0,13.1495,-15.6136,-11.9798,-0.7155,1.1062,0.9131
5219.0,13.1495,-15.6136,-11.9798,-0.7155,1.1062,0.9131
5224.0,13.1495,-15.6136,-11.9798,-0.7155,1.1062,0.9131
5229.0,2.139,-2.7289,0.4033,-0.0998,-0.1204,2.1978
5234.0,2.139,-2.7289,0.4033,-0.0998,-0.1204,2.1978
5239.0,2.139,-2.7289,0.4033,-0.0998,-0.1204,2.1978
5244.0,2.139,-2.7289,0.4033,-0.0998,-0.1204,2.1978
5249.0,2.139,-2.7289,0.4033,-0.0998,-0.1204,2.1978
5254.0,1.6218,-3.5678,2.2942,-0.0998,-0.1204,2.1978
5259.0,1.6218,-3.5678,2.2942,-1.0735,-0.9622,4.3786
5264.0,1.6218,-3.5678,2.2942,-1.0735,-0.9622,4.3786
5269.0,1.6218,-3.5678,2.2942,-1.0735,-0.9622,4.3786
5274.0,1.6218,-3.5678,2.2942,-1.0735,-0.9622,4.3786
5279.0,2.4695,-7.2812,2.9814,-1.0735,-0.9622,4.3786
5284.0,2.4695,-7.2812,2.9814,-1.0735,-0.9622,4.3786
5289.0,2.4695,-7.2812,2.9814,-0.0161,-0.1681,4.1624
5294.0,2.4695,-7.2812,2.9814,-0.0161,-0.1681,4.1624
5299.0,2.4695,-7.2812,2.9814,-0.0161,-0.1681,4.1624
5304.0,2.4695,-7.2812,2.9814,-0.0161,-0.1681,4.1624
5309.0,4.8018,-13.4113,1.9388,-0.0161,-0.1681,4.1624
5314.0,4.8018,-13.4113,1.9388,-0.0161,-0.1681,4.1624
5319.0,4.8018,-13.4113,1.9388,0.8458,0.5442,2.2528
5324.0,4.8018,-13.4113,1.9388,0.8458,0.5442,2.2528
5329.0,4.8018,-13.4113,1.9388,0.8458,0.5442,2.2528
5334.0,3.7434,-16.9149,-2.8334,0.8458,0.5442,2.2528
5339.0,3.7434,-16.9149,-2.8334,0.8458,0.5442,2.2528
5344.0,3.7434,-16.9149,-2.8334,0.8458,0.5442,2.2528
5349.0,3.7434,-16.9149,-2.8334,0.8458,0.5442,2.2528
5354.0,3.7434,-16.9149,-2.8334,-0.0711,-1.3703,0.2791
5359.0,3.7434,-16.9149,-2.8334,-0.0711,-1.3703,0.2791
5365.0,-0.4807,-8.8495,0.0242,-0.0711,-1.3703,0.2791
5369.0,-0.4807,-8.8495,0.0242,-0.0711,-1.3703,0.2791
5374.0,-0.4807,-8.8495,0.0242,-0.0711,-1.3703,0.2791
5379.0,-0.4807,-8.8495,0.0242,-0.0711,-1.3703,0.2791
5387.0,-0.4807,-8.8495,0.0242,-0.8481,0.7495,1.4165
5390.0,1.435,-9.9363,-4.421,-0.8481,0.7495,1.4165
5394.0,1.435,-9.9363,-4.421,-0.8481,0.7495,1.4165
5399.0,1.435,-9.9363,-4.421,-0.8481,0.7495,1.4165
5404.0,1.435,-9.9363,-4.421,-0.8481,0.7495,1.4165
5410.0,1.435,-9.9363,-4.421,-0.8481,0.7495,1.4165
5415.0,2.0385,-9.4787,0.228,0.1629,1.3481,0.3939
5419.0,2.0385,-9.4787,0.228,0.1629,1.3481,0.3939
5424.0,2.0385,-9.4787,0.228,0.1629,1.3481,0.3939
5429.0,2.0385,-9.4787,0.228,0.1629,1.3481,0.3939
5434.0,2.0385,-9.4787,0.228,0.1629,1.3481,0.3939
5439.0,2.0385,-9.4787,0.228,0.1629,1.3481,0.3939
5445.0,1.8565,-7.0857,0.1285,0.0816,2.2015,0.6486
5449.0,1.8565,-7.0857,0.1285,0.0816,2.2015,0.6486
5454.0,1.8565,-7.0857,0.1285,0.0816,2.2015,0.6486
5459.0,1.8565,-7.0857,0.1285,0.0816,2.2015,0.6486
5464.0,1.8565,-7.0857,0.1285,0.0816,2.2015,0.6486
5470.0,1.3776,-5.9322,-0.0469,0.0816,2.2015,0.6486
5474.0,1.3776,-5.9322,-0.0469,0.0816,2.2015,0.6486
5480.0,1.3776,-5.9322,-0.0469,-0.0662,1.8997,0.4593
5484.0,1.3776,-5.9322,-0.0469,-0.0662,1.8997,0.4593
5489.0,1.3776,-5.9322,-0.0469,-0.0662,1.8997,0.4593
5494.0,1.3776,-5.9322,-0.0469,-0.0662,1.8997,0.4593
5499.0,1.617,-6.5471,0.4839,-0.0662,1.8997,0.4593
5504.0,1.617,-6.5471,0.4839,-0.0662,1.8997,0.4593
5509.0,1.617,-6.5471,0.4839,0.1378,0.7531,0.5069
5515.0,1.617,-6.5471,0.4839,0.1378,0.7531,0.5069
5519.0,1.617,-6.5471,0.4839,0.1378,0.7531,0.5069
5524.0,2.3785,-8.4729,0.5076,0.1378,0.7531,0.5069
5529.0,2.3785,-8.4729,0.5076,0.1378,0.7531,0.5069
5534.0,2.3785,-8.4729,0.5076,0.1378,0.7531,0.5069
5539.0,2.3785,-8.4729,0.5076,0.1378,0.7531,0.5069
5544.0,2.3785,-8.4729,0.5076,0.6754,-0.6885,0.8692
5549.0,2.3785,-8.4729,0.5076,0.6754,-0.6885,0.8692
5554.0,3.7817,-10.3415,0.5929,0.6754,-0.6885,0.8692
5559.0,3.7817,-10.3415,0.5929,0.6754,-0.6885,0.8692
5564.0,3.7817,-10.3415,0.5929,0.6754,-0.6885,0.8692
5569.0,3.7817,-10.3415,0.5929,0.6754,-0.6885,0.8692
5574.0,3.7817,-10.3415,0.5929,0.8923,-1.399,1.3206
5579.0,5.4053,-11.3616,1.8772,0.8923,-1.399,1.3206
5584.0,5.4053,-11.3616,1.8772,0.8923,-1.399,1.3206
5589.0,5.4053,-11.3616,1.8772,0.8923,-1.399,1.3206
5594.0,5.4053,-11.3616,1.8772,0.8923,-1.399,1.3206
5599.0,5.4053,-11.3616,1.8772,0.8923,-1.399,1.3206
5604.0,9.0882,-10.0936,-0.9473,0.552,2.6688,1.9724
5609.0,9.0882,-10.0936,-0.9473,0.552,2.6688,1.9724
5614.0,9.0882,-10.0936,-0.9473,0.552,2.6688,1.9724
5619.0,9.0882,-10.0936,-0.9473,0.552,2.6688,1.9724
5624.0,9.0882,-10.0936,-0.9473,0.552,2.6688,1.9724
5629.0,9.0882,-10.0936,-0.9473,0.552,2.6688,1.9724
5634.0,4.7731,-10.6847,-8.345,-0.2549,3.5161,-1.8327
5639.0,4.7731,-10.6847,-8.345,-0.2549,3.5161,-1.8327
5644.0,4.7731,-10.6847,-8.345,-0.2549,3.5161,-1.8327
5649.0,4.7731,-10.6847,-8.345,-0.2549,3.5161,-1.8327
5654.0,4.7731,-10.6847,-8.345,-0.2549,3.5161,-1.8327
5659.0,4.2607,-12.2101,-4.2125,-0.2549,3.5161,-1.8327
5665.0,4.2607,-12.2101,-4.2125,-0.2549,3.5161,-1.8327
5669.0,4.2607,-12.2101,-4.2125,-0.1658,0.4318,-0.1198
5674.0,4.2607,-12.2101,-4.2125,-0.1658,0.4318,-0.1198
5679.0,4.2607,-12.2101,-4.2125,-0.1658,0.4318,-0.1198
5684.0,3.389,-12.6534,-1.1084,-0.1658,0.4318,-0.1198
5690.0,3.389,-12.6534,-1.1084,-0.1658,0.4318,-0.1198
5694.0,3.389,-12.6534,-1.1084,-0.1658,0.4318,-0.1198
5699.0,3.389,-12.6534,-1.1084,0.318,-0.8596,1.6266
5704.0,3.389,-12.6534,-1.1084,0.318,-0.8596,1.6266
5709.0,4.3804,-12.2148,-2.4543,0.318,-0.8596,1.6266
5714.0,4.3804,-12.2148,-2.4543,0.318,-0.8596,1.6266
5719.0,4.3804,-12.2148,-2.4543,0.318,-0.8596,1.6266
5724.0,4.3804,-12.2148,-2.4543,0.318,-0.8596,1.6266
5730.0,4.3804,-12.2148,-2.4543,0.3064,-0.2151,-0.03
5735.0,4.3804,-12.2148,-2.4543,0.3064,-0.2151,-0.03
5739.0,5.1371,-13.1539,-2.9045,0.3064,-0.2151,-0.03
5744.0,5.1371,-13.1539,-2.9045,0.3064,-0.2151,-0.03
5750.0,5.1371,-13.1539,-2.9045,0.3064,-0.2151,-0.03
5754.0,5.1371,-13.1539,-2.9045,0.3064,-0.2151,-0.03
5759.0,5.1371,-13.1539,-2.9045,-0.0747,-0.0997,-1.2683
5765.0,4.5911,-14.0786,-1.4212,-0.0747,-0.0997,-1.2683
5769.0,4.5911,-14.0786,-1.4212,-0.0747,-0.0997,-1.2683
5774.0,4.5911,-14.0786,-1.4212,-0.0747,-0.0997,-1.2683
5779.0,4.5911,-14.0786,-1.4212,-0.0747,-0.0997,-1.2683
5784.0,4.5911,-14.0786,-1.4212,-0.0747,-0.0997,-1.2683
5789.0,4.5911,-14.0786,-1.4212,-0.0747,-0.0997,-1.2683
5795.0,4.912,-13.4923,0.4507,-0.1126,-1.5896,-0.7912
5799.0,4.912,-13.4923,0.4507,-0.1126,-1.5896,-0.7912
5804.0,4.912,-13.4923,0.4507,-0.1126,-1.5896,-0.7912
5809.0,4.912,-13.4923,0.4507,-0.1126,-1.5896,-0.7912
5814.0,4.912,-13.4923,0.4507,-0.1126,-1.5896,-0.7912
5822.0,5.1802,-10.4559,0.3939,0.0676,-1.1339,-1.1375
5825.0,5.1802,-10.4559,0.3939,0.0676,-1.1339,-1.1375
5829.0,5.1802,-10.4559,0.3939,0.0676,-1.1339,-1.1375
5834.0,5.1802,-10.4559,0.3939,0.0676,-1.1339,-1.1375
5839.0,5.1802,-10.4559,0.3939,0.0676,-1.1339,-1.1375
5844.0,5.07,-7.7674,-1.4828,0.0676,-1.1339,-1.1375
5849.0,5.07,-7.7674,-1.4828,0.0676,-1.1339,-1.1375
5854.0,5.07,-7.7674,-1.4828,-0.2635,0.1917,-2.3239
5859.0,5.07,-7.7674,-1.4828,-0.2635,0.1917,-2.3239
5864.0,5.07,-7.7674,-1.4828,-0.2635,0.1917,-2.3239
5869.0,5.07,-9.8743,-5.3546,-0.2635,0.1917,-2.3239
5874.0,4.4091,-9.8743,-5.3546,-0.2635,0.1917,-2.3239
5879.0,4.4091,-9.8743,-5.3546,-0.2635,0.1917,-2.3239
5884.0,4.4091,-9.8743,-5.3546,-0.5017,0.8515,-4.2585
5890.0,4.4091,-9.8743,-5.3546,-0.5017,0.8515,-4.2585
5895.0,4.4091,-9.8743,-5.3546,-0.5017,0.8515,-4.2585
5899.0,4.5576,-11.6523,-9.0179,-0.5017,0.8515,-4.2585
5904.0,4.5576,-11.6523,-9.0179,-0.5017,0.8515,-4.2585
5910.0,4.5576,-11.6523,-9.0179,-0.5017,0.8515,-4.2585
5915.0,4.5576,-11.6523,-9.0179,-0.6459,-1.5682,-5.6531
5920.0,4.5576,-11.6523,-9.0179,-0.6459,-1.5682,-5.6531
5925.0,5.4053,-10.1746,-2.7576,-0.6459,-1.5682,-5.6531
5929.0,5.4053,-10.1746,-2.7576,-0.6459,-1.5682,-5.6531
5934.0,5.4053,-10.1746,-2.7576,-0.6459,-1.5682,-5.6531
5939.0,5.4053,-10.1746,-2.7576,-0.6459,-1.5682,-5.6531
5944.0,5.4053,-10.1746,-2.7576,-0.6459,-1.5682,-5.6531
5949.0,5.4053,-10.1746,-2.7576,-1.1468,-2.5987,-2.1107
5954.0,3.571,-8.9543,2.7871,-1.1468,-2.5987,-2.1107
5959.0,3.571,-8.9543,2.7871,-1.1468,-2.5987,-2.1107
5965.0,3.571,-8.9543,2.7871,-1.1468,-2.5987,-2.1107
5969.0,3.571,-8.9543,2.7871,-1.1468,-2.5987,-2.1107
5974.0,3.571,-8.9543,2.7871,-1.1468,-2.5987,-2.1107
5979.0,3.4321,-9.6932,3.5311,-0.3319,-2.8993,0.5472
5984.0,3.4321,-9.6932,3.5311,-0.3319,-2.8993,0.5472
5990.0,3.4321,-9.6932,3.5311,-0.3319,-2.8993,0.5472
5994.0,3.4321,-9.6932,3.5311,-0.3319,-2.8993,0.5472
5999.0,3.4321,-9.6932,3.5311,-0.3319,-2.8993,0.5472
6004.0,3.4321,-9.6932,3.5311,-0.3319,-2.8993,0.5472
6009.0,1.3632,-12.9489,-2.9519,1.092,-3.2469,0.0188
6014.0,1.3632,-12.9489,-2.9519,1.092,-3.2469,0.0188
6019.0,1.3632,-12.9489,-2.9519,1.092,-3.2469,0.0188
6024.0,1.3632,-12.9489,-2.9519,1.092,-3.2469,0.0188
6029.0,1.3632,-12.9489,-2.9519,1.092,-3.2469,0.0188
6035.0,1.3632,-12.9489,-2.9519,1.092,-3.2469,0.0188
6039.0,1.4925,-11.5999,-0.1748,1.6406,-0.6085,-3.6989
6044.0,1.4925,-11.5999,-0.1748,1.6406,-0.6085,-3.6989
6050.0,1.4925,-11.5999,-0.1748,1.6406,-0.6085,-3.6989
6054.0,1.4925,-11.5999,-0.1748,1.6406,-0.6085,-3.6989
6060.0,1.4925,-11.5999,-0.1748,1.6406,-0.6085,-3.6989
6064.0,1.4925,-11.5999,-0.1748,1.6406,-0.6085,-3.6989
6069.0,2.9484,-7.9247,-2.1321,1.0572,2.0396,-5.1137
6074.0,2.9484,-7.9247,-2.1321,1.0572,2.0396,-5.1137
6079.0,2.9484,-7.9247,-2.1321,1.0572,2.0396,-5.1137
6084.0,2.9484,-7.9247,-2.1321,1.0572,2.0396,-5.1137
6089.0,2.9484,-7.9247,-2.1321,1.0572,2.0396,-5.1137
6094.0,4.1313,-5.4364,-4.0514,1.0572,2.0396,-5.1137
6099.0,4.1313,-5.4364,-4.0514,0.596,1.1196,-4.7618
6104.0,4.1313,-5.4364,-4.0514,0.596,1.1196,-4.7618
6109.0,4.1313,-5.4364,-4.0514,0.596,1.1196,-4.7618
6114.0,4.1313,-5.4364,-4.0514,0.596,1.1196,-4.7618
6120.0,3.8584,-3.1579,-2.7102,0.596,1.1196,-4.7618
6124.0,3.8584,-3.1579,-2.7102,0.596,1.1196,-4.7618
6129.0,3.8584,-3.1579,-2.7102,0.596,1.1196,-4.7618
6134.0,3.8584,-3.1579,-2.7102,0.3309,-0.3855,-2.8229
6139.0,3.8584,-3.1579,-2.7102,0.3309,-0.3855,-2.8229
6144.0,3.8584,-3.1579,-2.7102,0.3309,-0.3855,-2.8229
6149.0,2.9149,-1.7326,-0.1891,0.3309,-0.3855,-2.8229
6155.0,2.9149,-1.7326,-0.1891,0.3309,-0.3855,-2.8229
6159.0,2.9149,-1.7326,-0.1891,0.3309,-0.3855,-2.8229
6164.0,2.9149,-1.7326,-0.1891,0.4555,-0.4912,-1.1546
6169.0,2.9149,-1.7326,-0.1891,0.4555,-0.4912,-1.1546
6174.0,1.2243,-0.9795,-0.9473,0.4555,-0.4912,-1.1546
6179.0,1.2243,-0.9795,-0.9473,0.4555,-0.4912,-1.1546
6184.0,1.2243,-0.9795,-0.9473,0.4555,-0.4912,-1.1546
6189.0,1.2243,-0.9795,-0.9473,0.4555,-0.4912,-1.1546
6194.0,1.2243,-0.9795,-0.9473,0.4555,-0.4912,-1.1546
6199.0,1.2243,-0.9795,-0.9473,0.4555,-0.4912,-1.1546
6204.0,1.2243,-0.9795,-0.9473,0.4555,-0.4912,-1.1546
6209.0,1.2243,-0.9795,-0.9473,0.4555,-0.4912,-1.1546
6214.0,0.6065,-1.7231,-2.9898,0.4573,0.4458,-0.3587
6221.0,0.6065,-1.7231,-2.9898,0.4573,0.4458,-0.3587
6224.0,0.6065,-1.7231,-2.9898,0.4573,0.4458,-0.3587
6229.0,0.6065,-1.7231,-2.9898,0.4573,0.4458,-0.3587
6234.0,0.6065,-1.7231,-2.9898,0.4573,0.4458,-0.3587
6240.0,1.3057,-0.9985,-5.2314,0.4573,0.4458,-0.3587
6245.0,1.3057,-0.9985,-5.2314,0.0816,0.7213,0.984
6250.0,1.3057,-0.9985,-5.2314,0.0816,0.7213,0.984
6254.0,1.3057,-0.9985,-5.2314,0.0816,0.7213,0.984
6259.0,1.3057,-0.9985,-5.2314,0.0816,0.7213,0.984
6264.0,1.3057,-0.9985,-5.2314,0.0816,0.7213,0.984
6269.0,-1.8504,-4.5879,-7.7952,0.0816,0.7213,0.984
6274.0,-1.8504,-4.5879,-7.7952,0.0816,0.7213,0.984
6279.0,-1.8504,-4.5879,-7.7952,0.4995,1.3365,2.0036
6285.0,-1.8504,-4.5879,-7.7952,0.4995,1.3365,2.0036
6290.0,-1.8504,-4.5879,-7.7952,0.4995,1.3365,2.0036
6294.0,-2.0563,-5.5032,-9.3117,0.4995,1.3365,2.0036
6299.0,-2.0563,-5.5032,-9.3117,0.4995,1.3365,2.0036
6304.0,-2.0563,-5.5032,-9.3117,0.4995,1.3365,2.0036
6309.0,-2.0563,-5.5032,-9.3117,0.0792,1.8368,3.3304
6315.0,-2.0563,-5.5032,-9.3117,0.0792,1.8368,3.3304
6320.0,2.0002,-2.3809,-2.5444,0.0792,1.8368,3.3304
6324.0,2.0002,-2.3809,-2.5444,0.0792,1.8368,3.3304
6329.0,2.0002,-2.3809,-2.5444,0.0792,1.8368,3.3304
6334.0,2.0002,-2.3809,-2.5444,0.0792,1.8368,3.3304
6339.0,2.0002,-2.3809,-2.5444,-1.1267,-1.6048,5.1147
6345.0,2.0002,-2.3809,-2.5444,-1.1267,-1.6048,5.1147
6349.0,10.4867,-2.8051,-3.4163,-1.1267,-1.6048,5.1147
6354.0,10.4867,-2.8051,-3.4163,-1.1267,-1.6048,5.1147
6359.0,10.4867,-2.8051,-3.4163,-1.1267,-1.6048,5.1147
6364.0,10.4867,-2.8051,-3.4163,-1.1267,-1.6048,5.1147
6369.0,10.4867,-2.8051,-3.4163,-2.4895,2.2308,1.5869
6374.0,20.1705,-29.4993,-19.7803,-2.4895,2.2308,1.5869
6380.0,20.1705,-29.4993,-19.7803,-2.4895,2.2308,1.5869
6384.0,20.1705,-29.4993,-19.7803,-2.4895,2.2308,1.5869
6389.0,20.1705,-29.4993,-19.7803,-2.4895,2.2308,1.5869
6394.0,20.1705,-29.4993,-19.7803,-2.4895,2.2308,1.5869
6400.0,20.1705,-29.4993,-19.7803,-2.4895,2.2308,1.5869
6404.0,11.229,-18.8645,-3.0846,-0.2763,-0.2188,1.3878
6409.0,11.229,-18.8645,-3.0846,-0.2763,-0.2188,1.3878
6414.0,11.229,-18.8645,-3.0846,-0.2763,-0.2188,1.3878
6419.0,11.229,-18.8645,-3.0846,-0.2763,-0.2188,1.3878
6425.0,2.1151,-2.6097,-0.8762,-0.2763,-0.2188,1.3878
6431.0,2.1151,-2.6097,-0.8762,-0.5225,-0.5175,3.3304
6435.0,2.1151,-2.6097,-0.8762,-0.5225,-0.5175,3.3304
6440.0,2.1151,-2.6097,-0.8762,-0.5225,-0.5175,3.3304
6445.0,2.1151,-2.6097,-0.8762,-0.5225,-0.5175,3.3304
6449.0,2.1151,-2.6097,-0.8762,-0.5225,-0.5175,3.3304
6454.0,-0.8111,0.2933,-3.2268,-0.5225,-0.5175,3.3304
6459.0,-0.8111,0.2933,-3.2268,-0.5225,-0.5175,3.3304
6464.0,-0.8111,0.2933,-3.2268,-0.82,-1.0856,3.2864
6469.0,-0.8111,0.2933,-3.2268,-0.82,-1.0856,3.2864
6474.0,-0.8111,0.2933,-3.2268,-0.82,-1.0856,3.2864
6479.0,0.3862,-3.5821,0.7682,-0.82,-1.0856,3.2864
6484.0,0.3862,-3.5821,0.7682,-0.82,-1.0856,3.2864
6489.0,0.3862,-3.5821,0.7682,-0.82,-1.0856,3.2864
6494.0,0.3862,-3.5821,0.7682,-0.1823,-0.6769,2.5026
6500.0,0.3862,-3.5821,0.7682,-0.1823,-0.6769,2.5026
6504.0,0.3862,-3.5821,0.7682,-0.1823,-0.6769,2.5026
6509.0,4.2942,-8.9734,2.6876,-0.1823,-0.6769,2.5026
6514.0,4.2942,-8.9734,2.6876,-0.1823,-0.6769,2.5026
6520.0,4.2942,-8.9734,2.6876,-0.1823,-0.6769,2.5026
6524.0,4.2942,-8.9734,2.6876,0.3516,0.6315,1.6883
6529.0,4.2942,-8.9734,2.6876,0.3516,0.6315,1.6883
6534.0,7.412,-15.7089,3.5453,0.3516,0.6315,1.6883
6540.0,7.412,-15.7089,3.5453,0.3516,0.6315,1.6883
6544.0,7.412,-15.7089,3.5453,0.3516,0.6315,1.6883
6549.0,7.412,-15.7089,3.5453,0.3516,0.6315,1.6883
6554.0,7.412,-15.7089,3.5453,0.3516,0.6315,1.6883
6560.0,-1.4241,-15.8233,-8.9563,-0.5842,2.2956,1.6694
6564.0,-1.4241,-15.8233,-8.9563,-0.5842,2.2956,1.6694
6569.0,-1.4241,-15.8233,-8.9563,-0.5842,2.2956,1.6694
6574.0,-1.4241,-15.8233,-8.9563,-0.5842,2.2956,1.6694
6579.0,-1.4241,-15.8233,-8.9563,-0.5842,2.2956,1.6694
6584.0,-0.0065,-10.4797,-4.0845,-0.5842,2.2956,1.6694
6589.0,-0.0065,-10.4797,-4.0845,-0.1487,0.4862,1.163
6594.0,-0.0065,-10.4797,-4.0845,-0.1487,0.4862,1.163
6599.0,-0.0065,-10.4797,-4.0845,-0.1487,0.4862,1.163
6605.0,-0.0065,-10.4797,-4.0845,-0.1487,0.4862,1.163
6609.0,1.8182,-8.6016,-0.4781,-0.1487,0.4862,1.163
6614.0,1.8182,-8.6016,-0.4781,-0.1487,0.4862,1.163
6620.0,1.8182,-8.6016,-0.4781,0.0407,1.0408,0.9718
6624.0,1.8182,-8.6016,-0.4781,0.0407,1.0408,0.9718
6629.0,1.8182,-8.6016,-0.4781,0.0407,1.0408,0.9718
6634.0,1.8182,-8.6016,-0.4781,0.0407,1.0408,0.9718
6639.0,1.8948,-6.509,-0.3976,0.0407,1.0408,0.9718
6644.0,1.8948,-6.509,-0.3976,0.0407,1.0408,0.9718
6649.0,1.8948,-6.509,-0.3976,0.1153,1.7165,0.6737
6654.0,1.8948,-6.509,-0.3976,0.1153,1.7165,0.6737
6659.0,1.8948,-6.509,-0.3976,0.1153,1.7165,0.6737
6665.0,2.1965,-5.6414,-0.6677,0.1153,1.7165,0.6737
6669.0,2.1965,-5.6414,-0.6677,0.1153,1.7165,0.6737
6674.0,2.1965,-5.6414,-0.6677,0.1153,1.7165,0.6737
6679.0,2.1965,-5.6414,-0.6677,0.0786,1.8637,0.4208
6684.0,2.1965,-5.6414,-0.6677,0.0786,1.8637,0.4208
6689.0,2.1965,-5.6414,-0.6677,0.0786,1.8637,0.4208
6694.0,2.7329,-6.2658,-0.3217,0.0786,1.8637,0.4208
6699.0,2.7329,-6.2658,-0.3217,0.0786,1.8637,0.4208
6704.0,2.7329,-6.2658,-0.3217,0.0786,1.8637,0.4208
6709.0,2.7329,-6.2658,-0.3217,0.1256,0.7354,0.8185
6714.0,2.7329,-6.2658,-0.3217,0.1256,0.7354,0.8185
6719.0,3.0825,-7.1763,0.1522,0.1256,0.7354,0.8185
6725.0,3.0825,-7.1763,0.1522,0.1256,0.7354,0.8185
6729.0,3.0825,-7.1763,0.1522,0.1256,0.7354,0.8185
6734.0,3.0825,-7.1763,0.1522,0.1256,0.7354,0.8185
6739.0,3.0825,-7.1763,0.1522,0.1256,0.7354,0.8185
6744.0,3.6716,-8.0153,0.2375,0.3981,-0.129,1.2699
6749.0,3.6716,-8.0153,0.2375,0.3981,-0.129,1.2699
6754.0,3.6716,-8.0153,0.2375,0.3981,-0.129,1.2699
6759.0,3.6716,-8.0153,0.2375,0.3981,-0.129,1.2699
6764.0,3.6716,-8.0153,0.2375,0.3981,-0.129,1.2699
6769.0,3.6716,-8.0153,0.2375,0.3981,-0.129,1.2699
6774.0,5.8219,-9.6169,-1.8193,0.2875,1.8283,0.8429
6779.0,5.8219,-9.6169,-1.8193,0.2875,1.8283,0.8429
6784.0,5.8219,-9.6169,-1.8193,0.2875,1.8283,0.8429
6789.0,5.8219,-9.6169,-1.8193,0.2875,1.8283,0.8429
6794.0,5.8219,-9.6169,-1.8193,0.2875,1.8283,0.8429
6799.0,2.9292,-12.0813,-4.1936,0.2875,1.8283,0.8429
6804.0,2.9292,-12.0813,-4.1936,0.2991,3.072,-0.7338
6809.0,2.9292,-12.0813,-4.1936,0.2991,3.072,-0.7338
6814.0,2.9292,-12.0813,-4.1936,0.2991,3.072,-0.7338
6819.0,2.9292,-12.0813,-4.1936,0.2991,3.072,-0.7338
6824.0,1.3776,-12.2673,-5.3925,0.2991,3.072,-0.7338
6829.0,1.3776,-12.2673,-5.3925,0.2991,3.072,-0.7338
6834.0,1.3776,-12.2673,-5.3925,0.888,0.5192,-0.0355
6839.0,1.3776,-12.2673,-5.3925,0.888,0.5192,-0.0355
6844.0,1.3776,-12.2673,-5.3925,0.888,0.5192,-0.0355
6849.0,1.3776,-12.2673,-5.3925,0.888,0.5192,-0.0355
6855.0,3.8919,-11.3044,-5.0324,0.888,0.5192,-0.0355
6859.0,3.8919,-11.3044,-5.0324,0.888,0.5192,-0.0355
6864.0,3.8919,-11.3044,-5.0324,0.8892,-1.5456,1.5124
6869.0,3.8919,-11.3044,-5.0324,0.8892,-1.5456,1.5124
6874.0,3.8919,-11.3044,-5.0324,0.8892,-1.5456,1.5124
6879.0,6.7558,-11.3234,-3.2836,0.8892,-1.5456,1.5124
6884.0,6.7558,-11.3234,-3.2836,0.8892,-1.5456,1.5124
6889.0,6.7558,-11.3234,-3.2836,0.8892,-1.5456,1.5124
6894.0,6.7558,-11.3234,-3.2836,0.7371,-1.5046,1.2497
6899.0,6.7558,-11.3234,-3.2836,0.7371,-1.5046,1.2497
6905.0,7.9579,-12.1958,-1.7292,0.7371,-1.5046,1.2497
6909.0,7.9579,-12.1958,-1.7292,0.7371,-1.5046,1.2497
6915.0,7.9579,-12.1958,-1.7292,0.7371,-1.5046,1.2497
6919.0,7.9579,-12.1958,-1.7292,0.7371,-1.5046,1.2497
6925.0,7.9579,-12.1958,-1.7292,0.4561,-1.4014,-0.3605
6929.0,7.9579,-12.1958,-1.7292,0.4561,-1.4014,-0.3605
6934.0,8.6093,-15.6088,0.3654,0.4561,-1.4014,-0.3605
6939.0,8.6093,-15.6088,0.3654,0.4561,-1.4014,-0.3605
6945.0,8.6093,-15.6088,0.3654,0.4561,-1.4014,-0.3605
6950.0,8.6093,-15.6088,0.3654,0.4561,-1.4014,-0.3605
6955.0,8.6093,-15.6088,0.3654,-0.0533,-2.1497,-1.5646
6959.0,8.1687,-14.6888,1.9957,-0.0533,-2.1497,-1.5646
6964.0,8.1687,-14.6888,1.9957,-0.0533,-2.1497,-1.5646
6969.0,8.1687,-14.6888,1.9957,-0.0533,-2.1497,-1.5646
6974.0,8.1687,-14.6888,1.9957,-0.0533,-2.1497,-1.5646
6979.0,8.1687,-14.6888,1.9957,-0.0533,-2.1497,-1.5646
6984.0,6.3009,-8.7398,1.1474,-0.3417,-0.0025,-1.9665
6989.0,6.3009,-8.7398,1.1474,-0.3417,-0.0025,-1.9665
6994.0,6.3009,-8.7398,1.1474,-0.3417,-0.0025,-1.9665
6999.0,6.3009,-8.7398,1.1474,-0.3417,-0.0025,-1.9665
7004.0,6.3009,-8.7398,1.1474,-0.3417,-0.0025,-1.9665
7009.0,6.3009,-8.7398,1.1474,-0.3417,-0.0025,-1.9665
7014.0,5.1131,-6.8903,-2.8097,-0.7332,1.9547,-2.5694
7019.0,5.1131,-6.8903,-2.8097,-0.7332,1.9547,-2.5694
7024.0,5.1131,-6.8903,-2.8097,-0.7332,1.9547,-2.5694
7030.0,5.1131,-6.8903,-2.8097,-0.7332,1.9547,-2.5694
7034.0,5.1131,-6.8903,-2.8097,-0.7332,1.9547,-2.5694
7039.0,5.1131,-6.8903,-2.8097,-0.7332,1.9547,-2.5694
7044.0,4.1266,-12.8679,-10.9941,-0.7332,1.9547,-2.5694
7049.0,4.1266,-12.8679,-10.9941,-1.1596,0.9718,-4.9964
7054.0,4.1266,-12.8679,-10.9941,-1.1596,0.9718,-4.9964
7059.0,4.1266,-12.8679,-10.9941,-1.1596,0.9718,-4.9964
7065.0,4.1266,-12.8679,-10.9941,-1.1596,0.9718,-4.9964
7069.0,4.2942,-13.3302,-7.6151,-1.1596,0.9718,-4.9964
7074.0,4.2942,-13.3302,-7.6151,-1.1596,0.9718,-4.9964
7080.0,4.2942,-13.3302,-7.6151,-1.0069,-3.0868,-4.2915
7084.0,4.2942,-13.3302,-7.6151,-1.0069,-3.0868,-4.2915
7089.0,4.2942,-13.3302,-7.6151,-1.0069,-3.0868,-4.2915
7094.0,4.6103,-9.4119,1.2185,-1.0069,-3.0868,-4.2915
7099.0,4.6103,-9.4119,1.2185,-1.0069,-3.0868,-4.2915
7104.0,4.6103,-9.4119,1.2185,-1.0069,-3.0868,-4.2915
7109.0,4.6103,-9.4119,1.2185,-0.9403,-4.1778,-1.0123
7115.0,4.6103,-9.4119,1.2185,-0.9403,-4.1778,-1.0123
7120.0,4.6103,-9.4119,1.2185,-0.9403,-4.1778,-1.0123
7124.0,3.2932,-9.3786,4.9528,-0.9403,-4.1778,-1.0123
7129.0,3.2932,-9.3786,4.9528,-0.9403,-4.1778,-1.0123
7134.0,3.2932,-9.3786,4.9528,-0.9403,-4.1778,-1.0123
7140.0,3.2932,-9.3786,4.9528,0.1556,-2.9652,0.1355
7144.0,3.2932,-9.3786,4.9528,0.1556,-2.9652,0.1355
7150.0,4.117,-10.4416,4.6163,0.1556,-2.9652,0.1355
7154.0,4.117,-10.4416,4.6163,0.1556,-2.9652,0.1355
7159.0,4.117,-10.4416,4.6163,0.1556,-2.9652,0.1355
7165.0,4.117,-10.4416,4.6163,0.1556,-2.9652,0.1355
7169.0,4.117,-10.4416,4.6163,1.0731,-2.7734,-1.1143
7174.0,1.7463,-13.7164,-4.8144,1.0731,-2.7734,-1.1143
7179.0,1.7463,-13.7164,-4.8144,1.0731,-2.7734,-1.1143
7184.0,1.7463,-13.7164,-4.8144,1.0731,-2.7734,-1.1143
7189.0,1.7463,-13.7164,-4.8144,1.0731,-2.7734,-1.1143
7195.0,1.7463,-13.7164,-4.8144,1.0731,-2.7734,-1.1143
7199.0,1.7463,-13.7164,-4.8144,1.0731,-2.7734,-1.1143
7204.0,1.7463,-13.7164,-4.8144,1.0731,-2.7734,-1.1143
7209.0,2.1725,-9.6979,-1.3264,1.0145,-0.1986,-4.027
7215.0,2.1725,-9.6979,-1.3264,1.0145,-0.1986,-4.027
7219.0,2.1725,-9.6979,-1.3264,1.0145,-0.1986,-4.027
7224.0,2.1725,-9.6979,-1.3264,1.0145,-0.1986,-4.027
7229.0,2.1725,-9.6979,-1.3264,1.0145,-0.1986,-4.027
7235.0,3.1448,-5.5747,-3.4685,1.0145,-0.1986,-4.027
7239.0,3.1448,-5.5747,-3.4685,0.3755,1.309,-4.7515
7245.0,3.1448,-5.5747,-3.4685,0.3755,1.309,-4.7515
7249.0,3.1448,-5.5747,-3.4685,0.3755,1.309,-4.7515
7255.0,3.1448,-5.5747,-3.4685,0.3755,1.309,-4.7515
7260.0,3.1448,-5.5747,-3.4685,0.3755,1.309,-4.7515
7264.0,3.1448,-5.5747,-3.4685,0.3755,1.309,-4.7515
7270.0,3.1448,-5.5747,-3.4685,0.3755,1.309,-4.7515
7274.0,3.3172,-3.7633,-3.5159,0.3169,0.3726,-4.231
7279.0,3.3172,-3.7633,-3.5159,0.3169,0.3726,-4.231
7284.0,3.3172,-3.7633,-3.5159,0.3169,0.3726,-4.231
7289.0,3.3172,-3.7633,-3.5159,0.3169,0.3726,-4.231
7294.0,3.3172,-3.7633,-3.5159,0.3169,0.3726,-4.231
7299.0,2.7616,-2.0472,-0.753,0.3169,0.3726,-4.231
7304.0,2.7616,-2.0472,-0.753,0.2881,-0.5022,-2.228
7309.0,2.7616,-2.0472,-0.753,0.2881,-0.5022,-2.228
7314.0,2.7616,-2.0472,-0.753,0.2881,-0.5022,-2.228
7319.0,2.7616,-2.0472,-0.753,0.2881,-0.5022,-2.228
7325.0,1.526,-1.337,-0.2933,0.2881,-0.5022,-2.228
7329.0,1.526,-1.337,-0.2933,0.2881,-0.5022,-2.228
7334.0,1.526,-1.337,-0.2933,0.4537,-0.2762,-0.9097
7339.0,1.526,-1.337,-0.2933,0.4537,-0.2762,-0.9097
7344.0,1.526,-1.337,-0.2933,0.4537,-0.2762,-0.9097
7350.0,1.526,-1.337,-0.2933,0.4537,-0.2762,-0.9097
7354.0,0.0797,-2.1855,-2.1842,0.4537,-0.2762,-0.9097
7360.0,0.0797,-2.1855,-2.1842,0.4537,-0.2762,-0.9097
7365.0,0.0797,-2.1855,-2.1842,0.4537,-0.2762,-0.9097
7370.0,0.0797,-2.1855,-2.1842,0.4018,0.4941,-0.297
7374.0,0.0797,-2.1855,-2.1842,0.4018,0.4941,-0.297
7379.0,0.0797,-2.1855,-2.1842,0.4018,0.4941,-0.297
7384.0,0.8986,-1.0557,-3.8239,0.4018,0.4941,-0.297
7389.0,0.8986,-1.0557,-3.8239,0.4018,0.4941,-0.297
7394.0,0.8986,-1.0557,-3.8239,0.4018,0.4941,-0.297
7399.0,0.8986,-1.0557,-3.8239,0.1403,1.2461,0.8685
7404.0,0.8986,-1.0557,-3.8239,0.1403,1.2461,0.8685
7410.0,0.8986,-1.0557,-3.8239,0.1403,1.2461,0.8685
7414.0,1.2818,-0.5361,-6.056,0.1403,1.2461,0.8685
7419.0,1.2818,-0.5361,-6.056,0.1403,1.2461,0.8685
7424.0,1.2818,-0.5361,-6.056,0.1403,1.2461,0.8685
7430.0,1.2818,-0.5361,-6.056,0.3364,1.4196,2.2821
7435.0,1.2818,-0.5361,-6.056,0.3364,1.4196,2.2821
7439.0,-1.6349,-5.4412,-11.2263,0.3364,1.4196,2.2821
7444.0,-1.6349,-5.4412,-11.2263,0.3364,1.4196,2.2821
7449.0,-1.6349,-5.4412,-11.2263,0.3364,1.4196,2.2821
7454.0,-1.6349,-5.4412,-11.2263,0.3364,1.4196,2.2821
7459.0,-1.6349,-5.4412,-11.2263,0.1189,0.7464,3.8038
7464.0,-1.6349,-5.4412,-11.2263,0.1189,0.7464,3.8038
7469.0,2.4216,-2.9911,-4.5111,0.1189,0.7464,3.8038
7474.0,2.4216,-2.9911,-4.5111,0.1189,0.7464,3.8038
7481.0,2.4216,-2.9911,-4.5111,0.1189,0.7464,3.8038
7485.0,2.4216,-2.9911,-4.5111,0.1189,0.7464,3.8038
7489.0,2.4216,-2.9911,-4.5111,0.1189,0.7464,3.8038
7495.0,8.8631,-2.7146,0.9673,-1.1113,-1.4234,4.8306
7501.0,8.8631,-2.7146,0.9673,-1.1113,-1.4234,4.8306
7505.0,8.8631,-2.7146,0.9673,-1.1113,-1.4234,4.8306
7509.0,8.8631,-2.7146,0.9673,-1.1113,-1.4234,4.8306
7514.0,8.8631,-2.7146,0.9673,-1.1113,-1.4234,4.8306
7519.0,19.6724,-24.4369,-21.4532,-1.1113,-1.4234,4.8306
7525.0,19.6724,-24.4369,-21.4532,-2.3374,1.3805,1.1923
7530.0,19.6724,-24.4369,-21.4532,-2.3374,1.3805,1.1923
7535.0,19.6724,-24.4369,-21.4532,-2.3374,1.3805,1.1923
7540.0,19.6724,-24.4369,-21.4532,-2.3374,1.3805,1.1923
7545.0,19.6724,-24.4369,-21.4532,-2.3374,1.3805,1.1923
7549.0,13.9301,-22.0869,-4.6864,-2.3374,1.3805,1.1923
7554.0,13.9301,-22.0869,-4.6864,-0.2323,-0.242,1.9748
7559.0,13.9301,-22.0869,-4.6864,-0.2323,-0.242,1.9748
7565.0,13.9301,-22.0869,-4.6864,-0.2323,-0.242,1.9748
7569.0,13.9301,-22.0869,-4.6864,-0.2323,-0.242,1.9748
7576.0,1.8373,-4.178,-2.7244,-0.2323,-0.242,1.9748
7580.0,1.8373,-4.178,-2.7244,-0.2323,-0.242,1.9748
7584.0,1.8373,-4.178,-2.7244,-0.3808,-0.6928,3.477
7589.0,1.8373,-4.178,-2.7244,-0.3808,-0.6928,3.477
7594.0,1.8373,-4.178,-2.7244,-0.3808,-0.6928,3.477
7600.0,1.8373,-4.178,-2.7244,-0.3808,-0.6928,3.477
7604.0,0.209,-1.5896,-1.4496,-0.3808,-0.6928,3.477
7609.0,0.209,-1.5896,-1.4496,-0.3808,-0.6928,3.477
7614.0,0.209,-1.5896,-1.4496,-0.688,-1.2102,3.7268
7620.0,0.209,-1.5896,-1.4496,-0.688,-1.2102,3.7268
7625.0,0.209,-1.5896,-1.4496,-0.688,-1.2102,3.7268
7629.0,0.209,-1.5896,-1.4496,-0.688,-1.2102,3.7268
7634.0,1.3967,-6.528,1.4933,-0.688,-1.2102,3.7268
7639.0,1.3967,-6.528,1.4933,-0.688,-1.2102,3.7268
7647.0,1.3967,-6.528,1.4933,0.3321,-0.3507,2.7415
7649.0,1.3967,-6.528,1.4933,0.3321,-0.3507,2.7415
7654.0,1.3967,-6.528,1.4933,0.3321,-0.3507,2.7415
7659.0,5.1371,-12.5485,2.479,0.3321,-0.3507,2.7415
7664.0,5.1371,-12.5485,2.479,0.3321,-0.3507,2.7415
7670.0,5.1371,-12.5485,2.479,0.3321,-0.3507,2.7415
7674.0,5.1371,-12.5485,2.479,0.3321,-0.3507,2.7415
7680.0,5.1371,-12.5485,2.479,0.2399,0.6242,1.3554
7684.0,5.1371,-12.5485,2.479,0.2399,0.6242,1.3554
7690.0,4.8545,-16.1522,1.3843,0.2399,0.6242,1.3554
7694.0,4.8545,-16.1522,1.3843,0.2399,0.6242,1.3554
7701.0,4.8545,-16.1522,1.3843,0.2399,0.6242,1.3554
7704.0,4.8545,-16.1522,1.3843,0.2399,0.6242,1.3554
7709.0,4.8545,-16.1522,1.3843,-0.5866,2.2595,1.265
7714.0,-2.5544,-9.5645,-8.4208,-0.5866,2.2595,1.265
7719.0,-2.5544,-9.5645,-8.4208,-0.5866,2.2595,1.265
7724.0,-2.5544,-9.5645,-8.4208,-0.5866,2.2595,1.265
7729.0,-2.5544,-9.5645,-8.4208,-0.5866,2.2595,1.265
7734.0,-2.5544,-9.5645,-8.4208,-0.5866,2.2595,1.265
7739.0,-2.5544,-9.5645,-8.4208,-0.0887,1.3383,0.9382
7744.0,1.5835,-9.512,-2.4022,-0.0887,1.3383,0.9382
7749.0,1.5835,-9.512,-2.4022,-0.0887,1.3383,0.9382
7754.0,1.5835,-9.512,-2.4022,-0.0887,1.3383,0.9382
7759.0,1.5835,-9.512,-2.4022,-0.0887,1.3383,0.9382
7764.0,1.5835,-9.512,-2.4022,-0.0887,1.3383,0.9382
7769.0,2.2205,-7.1906,-1.1842,0.1379,1.0445,1.1795
7775.0,2.2205,-7.1906,-1.1842,0.1379,1.0445,1.1795
7783.0,2.2205,-7.1906,-1.1842,0.1379,1.0445,1.1795
7784.0,2.2205,-7.1906,-1.1842,0.1379,1.0445,1.1795
7789.0,2.2205,-7.1906,-1.1842,0.1379,1.0445,1.1795
7795.0,2.2205,-7.1906,-1.1842,0.1379,1.0445,1.1795
7800.0,2.23,-5.3363,-1.0705,-0.0093,1.083,1.0487
7804.0,2.23,-5.3363,-1.0705,-0.0093,1.083,1.0487
7809.0,2.23,-5.3363,-1.0705,-0.0093,1.083,1.0487
7814.0,2.23,-5.3363,-1.0705,-0.0093,1.083,1.0487
7820.0,2.23,-5.3363,-1.0705,-0.0093,1.083,1.0487
7824.0,2.2588,-5.5079,-1.4259,-0.0093,1.083,1.0487
7829.0,2.2588,-5.5079,-1.4259,-0.0093,1.083,1.0487
7834.0,2.2588,-5.5079,-1.4259,0.0591,1.0408,0.6236
7839.0,2.2588,-5.5079,-1.4259,0.0591,1.0408,0.6236
7844.0,2.2588,-5.5079,-1.4259,0.0591,1.0408,0.6236
7849.0,2.2588,-5.5079,-1.4259,0.0591,1.0408,0.6236
7854.0,2.0863,-6.795,-0.1843,0.0591,1.0408,0.6236
7859.0,2.0863,-6.795,-0.1843,0.0591,1.0408,0.6236
7865.0,2.0863,-6.795,-0.1843,0.4201,0.1642,0.7378
7870.0,2.0863,-6.795,-0.1843,0.4201,0.1642,0.7378
7874.0,2.0863,-6.795,-0.1843,0.4201,0.1642,0.7378
7879.0,2.4839,-7.4671,0.4981,0.4201,0.1642,0.7378
7884.0,2.4839,-7.4671,0.4981,0.4201,0.1642,0.7378
7890.0,2.4839,-7.4671,0.4981,0.4201,0.1642,0.7378
7894.0,2.4839,-7.4671,0.4981,0.4201,0.1642,0.7378
7899.0,2.4839,-7.4671,0.4981,0.5734,0.2039,1.2332
7904.0,2.6323,-8.5825,0.3038,0.5734,0.2039,1.2332
7909.0,2.6323,-8.5825,0.3038,0.5734,0.2039,1.2332
7914.0,2.6323,-8.5825,0.3038,0.5734,0.2039,1.2332
7919.0,2.6323,-8.5825,0.3038,0.5734,0.2039,1.2332
7924.0,2.6323,-8.5825,0.3038,0.5734,0.2039,1.2332
7930.0,2.6323,-8.5825,0.3038,0.6064,0.3628,0.9791
7934.0,2.8239,-10.0173,0.6118,0.6064,0.3628,0.9791
7939.0,2.8239,-10.0173,0.6118,0.6064,0.3628,0.9791
7944.0,2.8239,-10.0173,0.6118,0.6064,0.3628,0.9791
7949.0,2.8239,-10.0173,0.6118,0.6064,0.3628,0.9791
7954.0,2.8239,-10.0173,0.6118,0.6064,0.3628,0.9791
7959.0,4.8018,-12.0956,-1.952,0.6547,2.4703,0.9626
7964.0,4.8018,-12.0956,-1.952,0.6547,2.4703,0.9626
7969.0,4.8018,-12.0956,-1.952,0.6547,2.4703,0.9626
7974.0,4.8018,-12.0956,-1.952,0.6547,2.4703,0.9626
7979.0,4.8018,-12.0956,-1.952,0.6547,2.4703,0.9626
7984.0,4.8018,-12.0956,-1.952,0.6547,2.4703,0.9626
7989.0,4.0595,-12.5676,-8.762,0.6547,2.4703,0.9626
7994.0,4.0595,-12.5676,-8.762,0.4738,2.9736,-0.1266
8000.0,4.0595,-12.5676,-8.762,0.4738,2.9736,-0.1266
8004.0,4.0595,-12.5676,-8.762,0.4738,2.9736,-0.1266
8009.0,4.0595,-12.5676,-8.762,0.4738,2.9736,-0.1266
8014.0,5.0126,-12.1862,-5.1888,0.4738,2.9736,-0.1266
8019.0,5.0126,-12.1862,-5.1888,0.4738,2.9736,-0.1266
8024.0,5.0126,-12.1862,-5.1888,0.3669,-1.0917,0.7677
8029.0,5.0126,-12.1862,-5.1888,0.3669,-1.0917,0.7677
8034.0,5.0126,-12.1862,-5.1888,0.3669,-1.0917,0.7677
8041.0,5.0796,-13.888,-1.516,0.3669,-1.0917,0.7677
8045.0,5.0796,-13.888,-1.516,0.3669,-1.0917,0.7677
8049.0,5.0796,-13.888,-1.516,0.3669,-1.0917,0.7677
8054.0,5.0796,-13.888,-1.516,0.4616,-2.2413,0.6083
8059.0,5.0796,-13.888,-1.516,0.4616,-2.2413,0.6083
8064.0,5.0796,-13.888,-1.516,0.4616,-2.2413,0.6083
8069.0,6.1668,-16.3524,0.4792,0.4616,-2.2413,0.6083
8074.0,6.1668,-16.3524,0.4792,0.4616,-2.2413,0.6083
8079.0,6.1668,-16.3524,0.4792,0.4616,-2.2413,0.6083
8084.0,6.1668,-16.3524,0.4792,0.4616,-2.2413,0.6083
8090.0,6.1668,-16.3524,0.4792,0.2374,-1.1253,-0.8792
8094.0,7.1773,-14.7698,1.6497,0.2374,-1.1253,-0.8792
8099.0,7.1773,-14.7698,1.6497,0.2374,-1.1253,-0.8792
8104.0,7.1773,-14.7698,1.6497,0.2374,-1.1253,-0.8792
8109.0,7.1773,-14.7698,1.6497,0.2374,-1.1253,-0.8792
8114.0,7.1773,-14.7698,1.6497,0.2374,-1.1253,-0.8792
8119.0,5.7932,-10.1842,0.2612,-0.3594,0.6548,-1.8926
8124.0,5.7932,-10.1842,0.2612,-0.3594,0.6548,-1.8926
8129.0,5.7932,-10.1842,0.2612,-0.3594,0.6548,-1.8926
8134.0,5.7932,-10.1842,0.2612,-0.3594,0.6548,-1.8926
8139.0,5.7932,-10.1842,0.2612,-0.3594,0.6548,-1.8926
8144.0,5.7932,-10.1842,0.2612,-0.3594,0.6548,-1.8926
8149.0,6.0135,-8.7398,-2.4638,-0.8248,0.8203,-2.6574
8154.0,6.0135,-8.7398,-2.4638,-0.8248,0.8203,-2.6574
8159.0,6.0135,-8.7398,-2.4638,-0.8248,0.8203,-2.6574
8164.0,6.0135,-8.7398,-2.4638,-0.8248,0.8203,-2.6574
8169.0,6.0135,-8.7398,-2.4638,-0.8248,0.8203,-2.6574
8174.0,6.4637,-12.4389,-5.293,-0.8248,0.8203,-2.6574
8179.0,6.4637,-12.4389,-5.293,-1.1773,0.0244,-4.0752
8184.0,6.4637,-12.4389,-5.293,-1.1773,0.0244,-4.0752
8189.0,6.4637,-12.4389,-5.293,-1.1773,0.0244,-4.0752
8194.0,6.4637,-12.4389,-5.293,-1.1773,0.0244,-4.0752
8200.0,4.3085,-13.0299,-6.6863,-1.1773,0.0244,-4.0752
8205.0,4.3085,-13.0299,-6.6863,-1.1773,0.0244,-4.0752
8209.0,4.3085,-13.0299,-6.6863,-0.9886,-0.8535,-4.8217
8214.0,4.3085,-13.0299,-6.6863,-0.9886,-0.8535,-4.8217
8219.0,4.3085,-13.0299,-6.6863,-0.9886,-0.8535,-4.8217
8224.0,4.3085,-13.0299,-6.6863,-0.9886,-0.8535,-4.8217
8229.0,1.8421,-11.2043,-4.5205,-0.9886,-0.8535,-4.8217
8235.0,1.8421,-11.2043,-4.5205,-0.9886,-0.8535,-4.8217
8239.0,1.8421,-11.2043,-4.5205,-0.8279,-2.9475,-3.3575
8244.0,1.8421,-11.2043,-4.5205,-0.8279,-2.9475,-3.3575
8249.0,1.8421,-11.2043,-4.5205,-0.8279,-2.9475,-3.3575
8254.0,3.3172,-9.3643,1.6876,-0.8279,-2.9475,-3.3575
8259.0,3.3172,-9.3643,1.6876,-0.8279,-2.9475,-3.3575
8264.0,3.3172,-9.3643,1.6876,-0.8279,-2.9475,-3.3575
8269.0,3.3172,-9.3643,1.6876,-0.8273,-3.0208,-0.7118
8274.0,3.3172,-9.3643,1.6876,-0.8273,-3.0208,-0.7118
8279.0,2.9867,-10.5893,4.0429,-0.8273,-3.0208,-0.7118
8285.0,2.9867,-10.5893,4.0429,-0.8273,-3.0208,-0.7118
8289.0,2.9867,-10.5893,4.0429,-0.8273,-3.0208,-0.7118
8294.0,2.9867,-10.5893,4.0429,-0.8273,-3.0208,-0.7118
8299.0,2.9867,-10.5893,4.0429,-0.8273,-3.0208,-0.7118
8305.0,2.9867,-10.5893,4.0429,-0.8273,-3.0208,-0.7118
8309.0,2.9867,-10.5893,4.0429,-0.8273,-3.0208,-0.7118
8314.0,3.1831,-10.4892,1.5644,0.0597,-2.8095,0.2424
8319.0,3.1831,-10.4892,1.5644,0.0597,-2.8095,0.2424
8324.0,3.1831,-10.4892,1.5644,0.0597,-2.8095,0.2424
8329.0,3.1831,-10.4892,1.5644,0.0597,-2.8095,0.2424
8335.0,3.1831,-10.4892,1.5644,0.0597,-2.8095,0.2424
8341.0,2.527,-9.5645,0.9057,0.0597,-2.8095,0.2424
8344.0,2.527,-9.5645,0.9057,0.8361,-0.7728,-2.9708
8349.0,2.527,-9.5645,0.9057,0.8361,-0.7728,-2.9708
8354.0,2.527,-9.5645,0.9057,0.8361,-0.7728,-2.9708
8360.0,2.527,-9.5645,0.9057,0.8361,-0.7728,-2.9708
8364.0,1.9666,-7.367,-0.4971,0.8361,-0.7728,-2.9708
8369.0,1.9666,-7.367,-0.4971,0.8361,-0.7728,-2.9708
8375.0,1.9666,-7.367,-0.4971,0.53,1.2211,-4.8358
8379.0,1.9666,-7.367,-0.4971,0.53,1.2211,-4.8358
8384.0,1.9666,-7.367,-0.4971,0.53,1.2211,-4.8358
8389.0,1.9666,-7.367,-0.4971,0.53,1.2211,-4.8358
8394.0,2.6994,-4.4211,-2.3832,0.53,1.2211,-4.8358
8399.0,2.6994,-4.4211,-2.3832,0.53,1.2211,-4.8358
8404.0,2.6994,-4.4211,-2.3832,0.395,0.9816,-5.49
8409.0,2.6994,-4.4211,-2.3832,0.395,0.9816,-5.49
8414.0,2.6994,-4.4211,-2.3832,0.395,0.9816,-5.49
8419.0,3.4321,-1.9471,-1.933,0.395,0.9816,-5.49
8424.0,3.4321,-1.9471,-1.933,0.395,0.9816,-5.49
8429.0,3.4321,-1.9471,-1.933,0.395,0.9816,-5.49
8435.0,3.4321,-1.9471,-1.933,0.0908,1.0806,-4.1418
8439.0,3.4321,-1.9471,-1.933,0.0908,1.0806,-4.1418
8445.0,2.7425,-1.2845,-1.4259,0.0908,1.0806,-4.1418
8449.0,2.7425,-1.2845,-1.4259,0.0908,1.0806,-4.1418
8454.0,2.7425,-1.2845,-1.4259,0.0908,1.0806,-4.1418
8459.0,2.7425,-1.2845,-1.4259,0.0908,1.0806,-4.1418
8464.0,2.7425,-1.2845,-1.4259,0.0701,-0.1723,-1.5719
8469.0,2.7425,-1.2845,-1.4259,0.0701,-0.1723,-1.5719
8474.0,2.2396,-2.195,-1.6866,0.0701,-0.1723,-1.5719
8479.0,2.2396,-2.195,-1.6866,0.0701,-0.1723,-1.5719
8484.0,2.2396,-2.195,-1.6866,0.0701,-0.1723,-1.5719
8489.0,2.2396,-2.195,-1.6866,0.0701,-0.1723,-1.5719
8494.0,2.2396,-2.195,-1.6866,0.0701,-0.1723,-1.5719
8501.0,1.7894,-3.8491,-2.5918,0.6369,0.1276,-0.2445
8505.0,1.7894,-3.8491,-2.5918,0.6369,0.1276,-0.2445
8509.0,1.7894,-3.8491,-2.5918,0.6369,0.1276,-0.2445
8514.0,1.7894,-3.8491,-2.5918,0.6369,0.1276,-0.2445
8519.0,1.7894,-3.8491,-2.5918,0.6369,0.1276,-0.2445
8524.0,1.7894,-3.8491,-2.5918,0.6369,0.1276,-0.2445
8529.0,2.23,-3.3343,-4.9802,0.7322,1.0396,0.5387
8534.0,2.23,-3.3343,-4.9802,0.7322,1.0396,0.5387
8540.0,2.23,-3.3343,-4.9802,0.7322,1.0396,0.5387
8544.0,2.23,-3.3343,-4.9802,0.7322,1.0396,0.5387
8550.0,2.23,-3.3343,-4.9802,0.7322,1.0396,0.5387
8554.0,3.1304,-0.4217,-7.1365,0.7322,1.0396,0.5387
8559.0,3.1304,-0.4217,-7.1365,0.4622,1.3072,1.7708
8564.0,3.1304,-0.4217,-7.1365,0.4622,1.3072,1.7708
8569.0,3.1304,-0.4217,-7.1365,0.4622,1.3072,1.7708
8574.0,3.1304,-0.4217,-7.1365,0.4622,1.3072,1.7708
8579.0,3.1304,-0.4217,-7.1365,0.4622,1.3072,1.7708
8584.0,-1.9653,-3.2294,-9.3354,0.4622,1.3072,1.7708
8590.0,-1.9653,-3.2294,-9.3354,0.6015,1.2577,3.2314
8594.0,-1.9653,-3.2294,-9.3354,0.6015,1.2577,3.2314
8599.0,-1.9653,-3.2294,-9.3354,0.6015,1.2577,3.2314
8604.0,-1.9653,-3.2294,-9.3354,0.6015,1.2577,3.2314
8609.0,-1.9653,-3.2294,-9.3354,0.6015,1.2577,3.2314
8614.0,-1.8839,-3.3724,-6.0039,0.6015,1.2577,3.2314
8619.0,-1.8839,-3.3724,-6.0039,0.0731,-0.6537,4.8997
8624.0,-1.8839,-3.3724,-6.0039,0.0731,-0.6537,4.8997
8629.0,-1.8839,-3.3724,-6.0039,0.0731,-0.6537,4.8997
8634.0,-1.8839,-3.3724,-6.0039,0.0731,-0.6537,4.8997
8639.0,9.5623,-3.1293,-3.241,0.0731,-0.6537,4.8997
8644.0,9.5623,-3.1293,-3.241,0.0731,-0.6537,4.8997
8649.0,9.5623,-3.1293,-3.241,-2.3294,-1.6989,3.6963
8654.0,9.5623,-3.1293,-3.241,-2.3294,-1.6989,3.6963
8659.0,23.8103,-22.1488,-15.1834,-2.3294,-1.6989,3.6963
8664.0,23.8103,-22.1488,-15.1834,-2.3294,-1.6989,3.6963
8669.0,23.8103,-22.1488,-15.1834,-2.3294,-1.6989,3.6963
8674.0,23.8103,-22.1488,-15.1834,-2.3294,-1.6989,3.6963
8679.0,23.8103,-22.1488,-15.1834,-2.3294,-1.6989,3.6963
8684.0,23.8103,-22.1488,-15.1834,-0.5836,0.0696,0.0891
8689.0,23.8103,-22.1488,-15.1834,-0.5836,0.0696,0.0891
8695.0,12.7184,-16.9244,-2.7197,-0.5836,0.0696,0.0891
8699.0,12.7184,-16.9244,-2.7197,-0.5836,0.0696,0.0891
8704.0,12.7184,-16.9244,-2.7197,-0.5836,0.0696,0.0891
8709.0,12.7184,-16.9244,-2.7197,-0.5836,0.0696,0.0891
8714.0,12.7184,-16.9244,-2.7197,-0.2958,-1.1552,3.4947
8719.0,0.7741,-2.6526,-1.606,-0.2958,-1.1552,3.4947
8725.0,0.7741,-2.6526,-1.606,-0.2958,-1.1552,3.4947
8729.0,0.7741,-2.6526,-1.606,-0.2958,-1.1552,3.4947
8734.0,0.7741,-2.6526,-1.606,-0.2958,-1.1552,3.4947
8739.0,0.7741,-2.6526,-1.606,-0.2958,-1.1552,3.4947
8744.0,-1.745,-1.0319,-3.3737,-0.4956,-1.2957,4.0909
8749.0,-1.745,-1.0319,-3.3737,-0.4956,-1.2957,4.0909
8754.0,-1.745,-1.0319,-3.3737,-0.4956,-1.2957,4.0909
8759.0,-1.745,-1.0319,-3.3737,-0.4956,-1.2957,4.0909
8764.0,-1.745,-1.0319,-3.3737,-0.4956,-1.2957,4.0909
8769.0,1.9523,-6.1228,1.6734,-0.4956,-1.2957,4.0909
8774.0,1.9523,-6.1228,1.6734,0.1446,-1.6018,3.5551
8779.0,1.9523,-6.1228,1.6734,0.1446,-1.6018,3.5551
8784.0,1.9523,-6.1228,1.6734,0.1446,-1.6018,3.5551
8789.0,1.9523,-6.1228,1.6734,0.1446,-1.6018,3.5551
8794.0,1.9523,-6.1228,1.6734,0.1446,-1.6018,3.5551
8799.0,6.0375,-12.6295,2.5122,0.1446,-1.6018,3.5551
8804.0,6.0375,-12.6295,2.5122,0.6082,-0.6897,2.7861
8809.0,6.0375,-12.6295,2.5122,0.6082,-0.6897,2.7861
8814.0,6.0375,-12.6295,2.5122,0.6082,-0.6897,2.7861
8819.0,6.0375,-12.6295,2.5122,0.6082,-0.6897,2.7861
8824.0,6.9666,-17.4488,2.2184,0.6082,-0.6897,2.7861
8829.0,6.9666,-17.4488,2.2184,0.6082,-0.6897,2.7861
8834.0,6.9666,-17.4488,2.2184,0.6082,-0.6897,2.7861
8840.0,6.9666,-17.4488,2.2184,-0.6495,0.8417,1.6199
8844.0,6.9666,-17.4488,2.2184,-0.6495,0.8417,1.6199
8849.0,-3.7421,-10.1651,-9.0843,-0.6495,0.8417,1.6199
8854.0,-3.7421,-10.1651,-9.0843,-0.6495,0.8417,1.6199
8859.0,-3.7421,-10.1651,-9.0843,-0.6495,0.8417,1.6199
8864.0,-3.7421,-10.1651,-9.0843,-0.6495,0.8417,1.6199
8869.0,-3.7421,-10.1651,-9.0843,-0.5866,1.5045,0.8728
8875.0,-3.7421,-10.1651,-9.0843,-0.5866,1.5045,0.8728
8880.0,0.4628,-9.3118,-2.4543,-0.5866,1.5045,0.8728
8885.0,0.4628,-9.3118,-2.4543,-0.5866,1.5045,0.8728
8889.0,0.4628,-9.3118,-2.4543,-0.5866,1.5045,0.8728
8894.0,0.4628,-9.3118,-2.4543,-0.5866,1.5045,0.8728
8899.0,0.4628,-7.8913,-0.5919,-0.206,1.5986,0.8838
8904.0,1.2913,-7.8913,-0.5919,-0.206,1.5986,0.8838
8909.0,1.2913,-7.8913,-0.5919,-0.206,1.5986,0.8838
8914.0,1.2913,-7.8913,-0.5919,-0.206,1.5986,0.8838
8920.0,1.2913,-7.8913,-0.5919,-0.206,1.5986,0.8838
8924.0,1.2913,-7.8913,-0.5919,-0.206,1.5986,0.8838
8930.0,1.162,-6.1419,-0.336,0.0151,2.16,0.7109
8934.0,1.162,-6.1419,-0.336,0.0151,2.16,0.7109
8941.0,1.162,-6.1419,-0.336,0.0151,2.16,0.7109
8944.0,1.162,-6.1419,-0.336,0.0151,2.16,0.7109
8949.0,1.162,-6.1419,-0.336,0.0151,2.16,0.7109
8954.0,1.162,-6.1419,-0.336,0.0151,2.16,0.7109
8959.0,1.0998,-5.8845,-0.0469,0.1141,2.3261,0.3719
8964.0,1.0998,-5.8845,-0.0469,0.1141,2.3261,0.3719
8969.0,1.0998,-5.8845,-0.0469,0.1141,2.3261,0.3719
8974.0,1.0998,-5.8845,-0.0469,0.1141,2.3261,0.3719
8980.0,1.0998,-5.8845,-0.0469,0.1141,2.3261,0.3719
8984.0,1.4207,-6.3183,0.2375,0.1141,2.3261,0.3719
8989.0,1.4207,-6.3183,0.2375,0.4176,1.6419,0.4965
8995.0,1.4207,-6.3183,0.2375,0.4176,1.6419,0.4965
8999.0,1.4207,-6.3183,0.2375,0.4176,1.6419,0.4965
9004.0,1.4207,-6.3183,0.2375,0.4176,1.6419,0.4965
9009.0,1.4207,-6.3183,0.2375,0.4176,1.6419,0.4965
9015.0,1.9331,-6.7807,0.2517,0.4176,1.6419,0.4965
9019.0,1.9331,-6.7807,0.2517,0.4176,1.6419,0.4965
9025.0,1.9331,-6.7807,0.2517,0.6669,0.1807,1.0439
9029.0,1.9331,-6.7807,0.2517,0.6669,0.1807,1.0439
9034.0,1.9331,-6.7807,0.2517,0.6669,0.1807,1.0439
9039.0,1.9331,-6.7807,0.2517,0.6669,0.1807,1.0439
9044.0,2.9867,-8.4347,0.3702,0.6669,0.1807,1.0439
9049.0,2.9867,-8.4347,0.3702,0.6669,0.1807,1.0439
9054.0,2.9867,-8.4347,0.3702,0.9546,-0.7227,1.422
9059.0,2.9867,-8.4347,0.3702,0.9546,-0.7227,1.422
9065.0,2.9867,-8.4347,0.3702,0.9546,-0.7227,1.422
9069.0,2.9867,-8.4347,0.3702,0.9546,-0.7227,1.422
9074.0,7.1869,-11.1518,1.1095,0.9546,-0.7227,1.422
9079.0,7.1869,-11.1518,1.1095,0.9546,-0.7227,1.422
9084.0,7.1869,-11.1518,1.1095,0.5459,3.8851,1.2442
9089.0,7.1869,-11.1518,1.1095,0.5459,3.8851,1.2442
9094.0,7.1869,-11.1518,1.1095,0.5459,3.8851,1.2442
9099.0,7.2731,-10.6608,-5.5347,0.5459,3.8851,1.2442
9104.0,7.2731,-10.6608,-5.5347,0.5459,3.8851,1.2442
9109.0,7.2731,-10.6608,-5.5347,0.5459,3.8851,1.2442
9114.0,7.2731,-10.6608,-5.5347,-0.3081,3.2522,-1.1895
9119.0,7.2731,-10.6608,-5.5347,-0.3081,3.2522,-1.1895
9125.0,2.8239,-12.129,-7.0322,-0.3081,3.2522,-1.1895
9129.0,2.8239,-12.129,-7.0322,-0.3081,3.2522,-1.1895
9134.0,2.8239,-12.129,-7.0322,-0.3081,3.2522,-1.1895
9139.0,2.8239,-12.129,-7.0322,-0.3081,3.2522,-1.1895
9144.0,2.8239,-12.129,-7.0322,0.1086,-0.0208,0.3951
9149.0,2.8239,-12.129,-7.0322,0.1086,-0.0208,0.3951
9154.0,2.7137,-13.2921,-2.715,0.1086,-0.0208,0.3951
9160.0,2.7137,-13.2921,-2.715,0.1086,-0.0208,0.3951
9164.0,2.7137,-13.2921,-2.715,0.1086,-0.0208,0.3951
9169.0,2.7137,-13.2921,-2.715,0.1086,-0.0208,0.3951
9174.0,2.7137,-13.2921,-2.715,0.1086,-0.0208,0.3951
9179.0,4.7683,-13.8451,-1.5871,0.6357,-1.3599,1.6608
9185.0,4.7683,-13.8451,-1.5871,0.6357,-1.3599,1.6608
9190.0,4.7683,-13.8451,-1.5871,0.6357,-1.3599,1.6608
9194.0,4.7683,-13.8451,-1.5871,0.6357,-1.3599,1.6608
9199.0,4.7683,-13.8451,-1.5871,0.6357,-1.3599,1.6608
9205.0,4.7683,-13.8451,-1.5871,0.6357,-1.3599,1.6608
9209.0,6.2817,-14.6364,-0.8904,0.472,-0.6983,-0.1046
9215.0,6.2817,-14.6364,-0.8904,0.472,-0.6983,-0.1046
9219.0,6.2817,-14.6364,-0.8904,0.472,-0.6983,-0.1046
9224.0,6.2817,-14.6364,-0.8904,0.472,-0.6983,-0.1046
9229.0,6.2817,-14.6364,-0.8904,0.472,-0.6983,-0.1046
9234.0,6.3057,-15.89,1.427,0.472,-0.6983,-0.1046
9240.0,6.3057,-15.89,1.427,0.0291,-1.7435,-1.151
9244.0,6.3057,-15.89,1.427,0.0291,-1.7435,-1.151
9249.0,6.3057,-15.89,1.427,0.0291,-1.7435,-1.151
9255.0,6.3057,-15.89,1.427,0.0291,-1.7435,-1.151
9261.0,6.3057,-15.89,1.427,0.0291,-1.7435,-1.151
9264.0,5.9273,-12.9823,1.7634,0.0291,-1.7435,-1.151
9269.0,5.9273,-12.9823,1.7634,-0.1804,-1.107,-1.446
9275.0,5.9273,-12.9823,1.7634,-0.1804,-1.107,-1.446
9280.0,5.9273,-12.9823,1.7634,-0.1804,-1.107,-1.446
9284.0,5.9273,-12.9823,1.7634,-0.1804,-1.107,-1.446
9289.0,5.8842,-8.8208,0.7493,-0.1804,-1.107,-1.446
9295.0,5.8842,-8.8208,0.7493,-0.1804,-1.107,-1.446
9299.0,5.8842,-8.8208,0.7493,-0.2879,-0.0508,-2.052
9304.0,5.8842,-8.8208,0.7493,-0.2879,-0.0508,-2.052
9309.0,5.8842,-8.8208,0.7493,-0.2879,-0.0508,-2.052
9315.0,7.5461,-7.8198,-1.0421,-0.2879,-0.0508,-2.052
9320.0,7.5461,-7.8198,-1.0421,-0.2879,-0.0508,-2.052
9324.0,7.5461,-7.8198,-1.0421,-0.2879,-0.0508,-2.052
9330.0,7.5461,-7.8198,-1.0421,-1.0796,2.152,-3.7081
9334.0,7.5461,-7.8198,-1.0421,-1.0796,2.152,-3.7081
9339.0,7.5461,-7.8198,-1.0421,-1.0796,2.152,-3.7081
9345.0,6.138,-10.6942,-5.5536,-1.0796,2.152,-3.7081
9349.0,6.138,-10.6942,-5.5536,-1.0796,2.152,-3.7081
9354.0,6.138,-10.6942,-5.5536,-1.0796,2.152,-3.7081
9360.0,6.138,-10.6942,-5.5536,-1.4052,1.0213,-5.7985
9364.0,6.138,-10.6942,-5.5536,-1.4052,1.0213,-5.7985
9370.0,6.2338,-11.0184,-7.2502,-1.4052,1.0213,-5.7985
9374.0,6.2338,-11.0184,-7.2502,-1.4052,1.0213,-5.7985
9379.0,6.2338,-11.0184,-7.2502,-1.4052,1.0213,-5.7985
9384.0,6.2338,-11.0184,-7.2502,-1.4052,1.0213,-5.7985
9389.0,6.2338,-11.0184,-7.2502,-1.4052,1.0213,-5.7985
9394.0,6.2338,-11.0184,-7.2502,-1.2158,-1.2255,-5.0471
9399.0,4.0978,-9.922,-2.6913,-1.2158,-1.2255,-5.0471
9404.0,4.0978,-9.922,-2.6913,-1.2158,-1.2255,-5.0471
9409.0,4.0978,-9.922,-2.6913,-1.2158,-1.2255,-5.0471
9414.0,4.0978,-9.922,-2.6913,-1.2158,-1.2255,-5.0471
9419.0,4.0978,-9.922,-2.6913,-1.4113,-2.7643,-0.6959
9424.0,1.9475,-9.1545,-0.2033,-1.4113,-2.7643,-0.6959
9429.0,1.9475,-9.1545,-0.2033,-1.4113,-2.7643,-0.6959
9434.0,1.9475,-9.1545,-0.2033,-1.4113,-2.7643,-0.6959
9439.0,1.9475,-9.1545,-0.2033,-1.4113,-2.7643,-0.6959
9444.0,1.9475,-9.1545,-0.2033,-1.4113,-2.7643,-0.6959
9449.0,1.6745,-9.2689,1.3369,-1.4113,-2.7643,-0.6959
9454.0,1.6745,-9.2689,1.3369,-0.3496,-5.2364,0.9632
9459.0,1.6745,-9.2689,1.3369,-0.3496,-5.2364,0.9632
9464.0,1.6745,-9.2689,1.3369,-0.3496,-5.2364,0.9632
9469.0,1.6745,-9.2689,1.3369,-0.3496,-5.2364,0.9632
9474.0,1.6745,-9.2689,1.3369,-0.3496,-5.2364,0.9632
9480.0,2.6563,-10.7562,0.7493,-0.3496,-5.2364,0.9632
9484.0,2.6563,-10.7562,0.7493,1.3113,-4.7704,-0.3575
9489.0,2.6563,-10.7562,0.7493,1.3113,-4.7704,-0.3575
9494.0,2.6563,-10.7562,0.7493,1.3113,-4.7704,-0.3575
9499.0,2.6563,-10.7562,0.7493,1.3113,-4.7704,-0.3575
9504.0,2.503,-10.2986,2.9577,1.3113,-4.7704,-0.3575
9509.0,2.503,-10.2986,2.9577,1.3113,-4.7704,-0.3575
9514.0,2.503,-10.2986,2.9577,1.1299,1.2119,-3.1265
9519.0,2.503,-10.2986,2.9577,1.1299,1.2119,-3.1265
9524.0,2.503,-10.2986,2.9577,1.1299,1.2119,-3.1265
9529.0,2.1295,-8.4204,-3.2457,1.1299,1.2119,-3.1265
9534.0,2.1295,-8.4204,-3.2457,1.1299,1.2119,-3.1265
9539.0,2.1295,-8.4204,-3.2457,1.1299,1.2119,-3.1265
9545.0,2.1295,-8.4204,-3.2457,0.8648,0.8973,-5.2994
9549.0,2.1295,-8.4204,-3.2457,0.8648,0.8973,-5.2994
9554.0,2.1295,-8.4204,-3.2457,0.8648,0.8973,-5.2994
9559.0,3.7626,-5.6605,-2.9282,0.8648,0.8973,-5.2994
9564.0,3.7626,-5.6605,-2.9282,0.8648,0.8973,-5.2994
9569.0,3.7626,-5.6605,-2.9282,0.8648,0.8973,-5.2994
9574.0,3.7626,-5.6605,-2.9282,0.8648,0.8973,-5.2994
9579.0,3.7626,-5.6605,-2.9282,0.924,1.2486,-5.5871
9584.0,4.4953,-2.5668,-1.6392,0.924,1.2486,-5.5871
9589.0,4.4953,-2.5668,-1.6392,0.924,1.2486,-5.5871
9594.0,4.4953,-2.5668,-1.6392,0.924,1.2486,-5.5871
9600.0,4.4953,-2.5668,-1.6392,0.924,1.2486,-5.5871
9604.0,4.4953,-2.5668,-1.6392,0.924,1.2486,-5.5871
9609.0,4.4953,-2.5668,-1.6392,0.3278,0.7,-3.1229
9614.0,2.0959,-2.2188,-2.5254,0.3278,0.7,-3.1229
9619.0,2.0959,-2.2188,-2.5254,0.3278,0.7,-3.1229
9624.0,2.0959,-2.2188,-2.5254,0.3278,0.7,-3.1229
9629.0,2.0959,-2.2188,-2.5254,0.3278,0.7,-3.1229
9634.0,2.0959,-2.2188,-2.5254,0.3278,0.7,-3.1229
9640.0,0.9082,-3.4487,-3.0656,0.5093,-0.3263,-1.0007
9644.0,0.9082,-3.4487,-3.0656,0.5093,-0.3263,-1.0007
9649.0,0.9082,-3.4487,-3.0656,0.5093,-0.3263,-1.0007
9654.0,0.9082,-3.4487,-3.0656,0.5093,-0.3263,-1.0007
9659.0,0.9082,-3.4487,-3.0656,0.5093,-0.3263,-1.0007
9664.0,1.3249,-3.7251,-2.8856,0.5093,-0.3263,-1.0007
9669.0,1.3249,-3.7251,-2.8856,0.5746,0.2583,-0.2909
9674.0,1.3249,-3.7251,-2.8856,0.5746,0.2583,-0.2909
9679.0,1.3249,-3.7251,-2.8856,0.5746,0.2583,-0.2909
9684.0,1.3249,-3.7251,-2.8856,0.5746,0.2583,-0.2909
9689.0,1.8565,-3.2437,-4.0561,0.5746,0.2583,-0.2909
9694.0,1.8565,-3.2437,-4.0561,0.5746,0.2583,-0.2909
9699.0,1.8565,-3.2437,-4.0561,0.5746,0.2583,-0.2909
9704.0,1.8565,-3.2437,-4.0561,0.5545,0.8936,0.4971
9709.0,1.8565,-3.2437,-4.0561,0.5545,0.8936,0.4971
9714.0,1.8565,-3.2437,-4.0561,0.5545,0.8936,0.4971
9719.0,3.0777,0.36,-6.075,0.5545,0.8936,0.4971
9724.0,3.0777,0.36,-6.075,0.5545,0.8936,0.4971
9729.0,3.0777,0.36,-6.075,0.5545,0.8936,0.4971
9734.0,3.0777,0.36,-6.075,0.472,1.039,1.615
9739.0,3.0777,0.36,-6.075,0.472,1.039,1.615
9744.0,-0.9357,0.6794,-10.6387,0.472,1.039,1.615
9749.0,-0.9357,0.6794,-10.6387,0.472,1.039,1.615
9754.0,-0.9357,0.6794,-10.6387,0.472,1.039,1.615
9759.0,-0.9357,0.6794,-10.6387,0.472,1.039,1.615
9765.0,-0.9357,0.6794,-10.6387,0.6999,0.758,2.1764
9770.0,-0.9357,0.6794,-10.6387,0.6999,0.758,2.1764
9775.0,-4.3695,-5.3077,-11.0225,0.6999,0.758,2.1764
9781.0,-4.3695,-5.3077,-11.0225,0.6999,0.758,2.1764
9784.0,-4.3695,-5.3077,-11.0225,0.6999,0.758,2.1764
9789.0,-4.3695,-5.3077,-11.0225,0.6999,0.758,2.1764
9794.0,-4.3695,-5.3077,-11.0225,-0.4302,0.273,3.6162
9800.0,3.8727,-1.685,1.498,-0.4302,0.273,3.6162
9804.0,3.8727,-1.685,1.498,-0.4302,0.273,3.6162
9809.0,3.8727,-1.685,1.498,-0.4302,0.273,3.6162
9814.0,3.8727,-1.685,1.498,-0.4302,0.273,3.6162
9820.0,3.8727,-1.685,1.498,-0.4302,0.273,3.6162
9824.0,3.8727,-1.685,1.498,-1.4803,-0.9713,4.6016
9829.0,7.5509,-2.1283,0.4318,-1.4803,-0.9713,4.6016
9834.0,7.5509,-2.1283,0.4318,-1.4803,-0.9713,4.6016
9839.0,7.5509,-2.1283,0.4318,-1.4803,-0.9713,4.6016
9845.0,7.5509,-2.1283,0.4318,-1.4803,-0.9713,4.6016
9849.0,7.5509,-2.1283,0.4318,-1.4803,-0.9713,4.6016
9854.0,16.7557,-30.0331,-33.3672,-1.4803,-0.9713,4.6016
9859.0,16.7557,-30.0331,-33.3672,-1.0576,2.3298,-1.2787
9864.0,16.7557,-30.0331,-33.3672,-1.0576,2.3298,-1.2787
9869.0,16.7557,-30.0331,-33.3672,-1.0576,2.3298,-1.2787
9874.0,16.7557,-30.0331,-33.3672,-1.0576,2.3298,-1.2787
9879.0,16.7557,-30.0331,-33.3672,-1.0576,2.3298,-1.2787
9884.0,18.5038,-20.5234,-0.2933,-1.0576,2.3298,-1.2787
9889.0,18.5038,-20.5234,-0.2933,-0.5756,-1.9133,2.1679
9895.0,18.5038,-20.5234,-0.2933,-0.5756,-1.9133,2.1679
9899.0,18.5038,-20.5234,-0.2933,-0.5756,-1.9133,2.1679
9904.0,18.5038,-20.5234,-0.2933,-0.5756,-1.9133,2.1679
9909.0,3.0107,-2.8528,2.0952,-0.5756,-1.9133,2.1679
9915.0,3.0107,-2.8528,2.0952,-0.5756,-1.9133,2.1679
9920.0,3.0107,-2.8528,2.0952,-1.3612,-0.9958,5.4299
9924.0,3.0107,-2.8528,2.0952,-1.3612,-0.9958,5.4299
9929.0,3.0107,-2.8528,2.0952,-1.3612,-0.9958,5.4299
9934.0,-3.4883,1.976,-6.1839,-1.3612,-0.9958,5.4299
9939.0,-3.4883,1.976,-6.1839,-1.3612,-0.9958,5.4299
9944.0,-3.4883,1.976,-6.1839,-1.3612,-0.9958,5.4299
9949.0,-3.4883,1.976,-6.1839,-0.0112,-1.03,2.8575
9954.0,-3.4883,1.976,-6.1839,-0.0112,-1.03,2.8575
9959.0,-3.4883,1.976,-6.1839,-0.0112,-1.03,2.8575
9964.0,1.2243,-2.8576,1.7398,-0.0112,-1.03,2.8575
9969.0,1.2243,-2.8576,1.7398,-0.0112,-1.03,2.8575
9974.0,1.2243,-2.8576,1.7398,-0.0112,-1.03,2.8575
9979.0,1.2243,-2.8576,1.7398,0.326,-1.0428,2.9003
9984.0,1.2243,-2.8576,1.7398,0.326,-1.0428,2.9003
9989.0,6.3679,-8.5777,2.6781,0.326,-1.0428,2.9003
9994.0,6.3679,-8.5777,2.6781,0.326,-1.0428,2.9003
10000.0,6.3679,-8.5777,2.6781,0.326,-1.0428,2.9003
10004.0,6.3679,-8.5777,2.6781,0.326,-1.0428,2.9003
10010.0,6.3679,-8.5777,2.6781,0.4891,-0.5468,2.3945
10014.0,9.5959,-16.5383,1.6734,0.4891,-0.5468,2.3945
10019.0,9.5959,-16.5383,1.6734,0.4891,-0.5468,2.3945
10024.0,9.5959,-16.5383,1.6734,0.4891,-0.5468,2.3945
10029.0,9.5959,-16.5383,1.6734,0.4891,-0.5468,2.3945
10034.0,9.5959,-16.5383,1.6734,0.4891,-0.5468,2.3945
10041.0,9.5959,-16.5383,1.6734,-0.3258,2.0818,1.6309
10044.0,1.1381,-14.5076,-5.2646,-0.3258,2.0818,1.6309
10049.0,1.1381,-14.5076,-5.2646,-0.3258,2.0818,1.6309
10054.0,1.1381,-14.5076,-5.2646,-0.3258,2.0818,1.6309
10060.0,1.1381,-14.5076,-5.2646,-0.3258,2.0818,1.6309
10064.0,1.1381,-14.5076,-5.2646,-0.3258,2.0818,1.6309
10070.0,1.1381,-14.5076,-5.2646,-0.3258,2.0818,1.6309
10074.0,0.9753,-11.7238,-1.7719,-0.2115,0.7311,1.0054
10081.0,0.9753,-11.7238,-1.7719,-0.2115,0.7311,1.0054
10085.0,0.9753,-11.7238,-1.7719,-0.2115,0.7311,1.0054
10089.0,0.9753,-11.7238,-1.7719,-0.2115,0.7311,1.0054
10094.0,0.9753,-11.7238,-1.7719,-0.2115,0.7311,1.0054
10099.0,1.1572,-7.5815,0.1427,-0.2115,0.7311,1.0054
10105.0,1.1572,-7.5815,0.1427,-0.3307,0.8283,1.5515
10109.0,1.1572,-7.5815,0.1427,-0.3307,0.8283,1.5515
10114.0,1.1572,-7.5815,0.1427,-0.3307,0.8283,1.5515
10120.0,1.1572,-7.5815,0.1427,-0.3307,0.8283,1.5515
10124.0,1.2195,-5.3459,-1.2411,-0.3307,0.8283,1.5515
10129.0,1.2195,-5.3459,-1.2411,-0.3307,0.8283,1.5515
10134.0,1.2195,-5.3459,-1.2411,-0.0759,1.2486,1.1593
10139.0,1.2195,-5.3459,-1.2411,-0.0759,1.2486,1.1593
10144.0,1.2195,-5.3459,-1.2411,-0.0759,1.2486,1.1593
10149.0,1.4207,-5.4745,-0.8194,-0.0759,1.2486,1.1593
10154.0,1.4207,-5.4745,-0.8194,-0.0759,1.2486,1.1593
10159.0,1.4207,-5.4745,-0.8194,-0.0759,1.2486,1.1593
10164.0,1.4207,-5.4745,-0.8194,-0.0759,1.2486,1.1593
10169.0,1.4207,-5.4745,-0.8194,0.1556,1.3292,0.3866
10174.0,1.4207,-5.4745,-0.8194,0.1556,1.3292,0.3866
10179.0,2.5509,-7.5529,1.0005,0.1556,1.3292,0.3866
10184.0,2.5509,-7.5529,1.0005,0.1556,1.3292,0.3866
10189.0,2.5509,-7.5529,1.0005,0.1556,1.3292,0.3866
10195.0,2.5509,-7.5529,1.0005,0.1556,1.3292,0.3866
10201.0,3.2406,-8.5491,0.7303,0.1782,1.8619,0.5307
10204.0,3.2406,-8.5491,0.7303,0.1782,1.8619,0.5307
10209.0,3.2406,-8.5491,0.7303,0.1782,1.8619,0.5307
10214.0,3.2406,-8.5491,0.7303,0.1782,1.8619,0.5307
10219.0,3.2406,-8.5491,0.7303,0.1782,1.8619,0.5307
10224.0,3.2406,-8.5491,0.7303,0.1782,1.8619,0.5307
10229.0,3.2406,-8.5491,0.7303,0.1782,1.8619,0.5307
10235.0,3.5518,-9.2689,-0.5729,0.1629,1.2302,0.8038
10240.0,3.5518,-9.2689,-0.5729,0.1629,1.2302,0.8038
10244.0,3.5518,-9.2689,-0.5729,0.1629,1.2302,0.8038
10250.0,3.5518,-9.2689,-0.5729,0.1629,1.2302,0.8038
10255.0,3.5518,-9.2689,-0.5729,0.1629,1.2302,0.8038
10259.0,3.3986,-8.4633,-0.3928,0.1629,1.2302,0.8038
10264.0,3.3986,-8.4633,-0.3928,0.3046,0.6871,1.1214
10269.0,3.3986,-8.4633,-0.3928,0.3046,0.6871,1.1214
10274.0,3.3986,-8.4633,-0.3928,0.3046,0.6871,1.1214
10279.0,3.3986,-8.4633,-0.3928,0.3046,0.6871,1.1214
10284.0,3.3986,-8.4633,-0.3928,0.3046,0.6871,1.1214
10289.0,2.8526,-7.9485,0.0906,0.3046,0.6871,1.1214
10294.0,2.8526,-7.9485,0.0906,0.2264,0.1954,1.4256
10300.0,2.8526,-7.9485,0.0906,0.2264,0.1954,1.4256
10304.0,2.8526,-7.9485,0.0906,0.2264,0.1954,1.4256
10310.0,2.8526,-7.9485,0.0906,0.2264,0.1954,1.4256
10314.0,3.14,-8.1058,0.1616,0.2264,0.1954,1.4256
10319.0,3.14,-8.1058,0.1616,0.2264,0.1954,1.4256
10324.0,3.14,-8.1058,0.1616,0.1696,-0.2004,1.4989
10329.0,3.14,-8.1058,0.1616,0.1696,-0.2004,1.4989
10335.0,3.14,-8.1058,0.1616,0.1696,-0.2004,1.4989
10339.0,3.8871,-9.0878,0.427,0.1696,-0.2004,1.4989
10344.0,3.8871,-9.0878,0.427,0.1696,-0.2004,1.4989
10349.0,3.8871,-9.0878,0.427,0.1696,-0.2004,1.4989
10355.0,3.8871,-9.0878,0.427,0.1696,-0.2004,1.4989
10359.0,3.8871,-9.0878,0.427,0.1696,-0.2004,1.4989
10364.0,4.3517,-9.5311,0.6118,0.1146,-0.3159,1.5906
10369.0,4.3517,-9.5311,0.6118,0.1146,-0.3159,1.5906
10375.0,4.3517,-9.5311,0.6118,0.1146,-0.3159,1.5906
10380.0,4.3517,-9.5311,0.6118,0.1146,-0.3159,1.5906
10385.0,4.3517,-9.5311,0.6118,0.1146,-0.3159,1.5906
10389.0,4.3517,-9.5311,0.6118,0.1146,-0.3159,1.5906
10394.0,7.2779,-10.4702,-3.0704,-0.2794,1.645,1.3059
10399.0,7.2779,-10.4702,-3.0704,-0.2794,1.645,1.3059
10404.0,7.2779,-10.4702,-3.0704,-0.2794,1.645,1.3059
10409.0,7.2779,-10.4702,-3.0704,-0.2794,1.645,1.3059
10414.0,7.2779,-10.4702,-3.0704,-0.2794,1.645,1.3059
10421.0,2.5174,-9.4453,-6.8853,-0.2794,1.645,1.3059
10425.0,2.5174,-9.4453,-6.8853,-0.3728,1.1691,0.1844
10429.0,2.5174,-9.4453,-6.8853,-0.3728,1.1691,0.1844
10434.0,2.5174,-9.4453,-6.8853,-0.3728,1.1691,0.1844
10439.0,2.5174,-9.4453,-6.8853,-0.3728,1.1691,0.1844
10444.0,2.5174,-9.4453,-6.8853,-0.3728,1.1691,0.1844
10449.0,1.2003,-10.5417,-5.8949,-0.3728,1.1691,0.1844
10454.0,1.2003,-10.5417,-5.8949,-0.3728,1.1691,0.1844
10459.0,1.2003,-10.5417,-5.8949,-0.4235,-1.2249,0.9962
10464.0,1.2003,-10.5417,-5.8949,-0.4235,-1.2249,0.9962
10469.0,1.2003,-10.5417,-5.8949,-0.4235,-1.2249,0.9962
10474.0,0.9322,-11.2948,-0.5303,-0.4235,-1.2249,0.9962
10479.0,0.9322,-11.2948,-0.5303,-0.4235,-1.2249,0.9962
10484.0,0.9322,-11.2948,-0.5303,-0.4235,-1.2249,0.9962
10489.0,0.9322,-11.2948,-0.5303,-0.1004,-0.65,0.4024
10494.0,0.9322,-11.2948,-0.5303,-0.1004,-0.65,0.4024
10499.0,1.0567,-11.0374,0.6687,-0.1004,-0.65,0.4024
10504.0,1.0567,-11.0374,0.6687,-0.1004,-0.65,0.4024
10509.0,1.0567,-11.0374,0.6687,-0.1004,-0.65,0.4024
10514.0,1.0567,-11.0374,0.6687,-0.1004,-0.65,0.4024
10520.0,1.0567,-11.0374,0.6687,-0.0289,0.0195,-0.4369
10525.0,1.0567,-11.0374,0.6687,-0.0289,0.0195,-0.4369
10529.0,0.8795,-14.2502,2.4506,-0.0289,0.0195,-0.4369
10534.0,0.8795,-14.2502,2.4506,-0.0289,0.0195,-0.4369
10539.0,0.8795,-14.2502,2.4506,-0.0289,0.0195,-0.4369
10544.0,0.8795,-14.2502,2.4506,-0.0289,0.0195,-0.4369
10549.0,0.8795,-14.2502,2.4506,-0.0289,0.0195,-0.4369
10555.0,0.6687,-12.9441,1.735,0.3346,1.6248,-0.9299
10559.0,0.6687,-12.9441,1.735,0.3346,1.6248,-0.9299
10564.0,0.6687,-12.9441,1.735,0.3346,1.6248,-0.9299
10569.0,0.6687,-12.9441,1.735,0.3346,1.6248,-0.9299
10574.0,0.6687,-12.9441,1.735,0.3346,1.6248,-0.9299
10579.0,0.6687,-12.9441,1.735,0.3346,1.6248,-0.9299
10584.0,0.6687,-12.9441,1.735,0.3346,1.6248,-0.9299
10589.0,0.6687,-12.9441,1.735,0.3346,1.6248,-0.9299
10594.0,0.2712,-12.9394,1.5549,0.5398,1.455,-1.6818
10599.0,0.2712,-12.9394,1.5549,0.5398,1.455,-1.6818
10605.0,0.2712,-12.9394,1.5549,0.5398,1.455,-1.6818
10609.0,0.2712,-12.9394,1.5549,0.5398,1.455,-1.6818
10614.0,0.2712,-12.9394,1.5549,0.5398,1.455,-1.6818
10619.0,3.3746,-12.8202,1.4744,0.5398,1.455,-1.6818
10624.0,3.3746,-12.8202,1.4744,1.2991,-1.1864,-2.0966
10629.0,3.3746,-12.8202,1.4744,1.2991,-1.1864,-2.0966
10634.0,3.3746,-12.8202,1.4744,1.2991,-1.1864,-2.0966
10639.0,3.3746,-12.8202,1.4744,1.2991,-1.1864,-2.0966
10644.0,6.4398,-11.6476,1.3085,1.2991,-1.1864,-2.0966
10649.0,6.4398,-11.6476,1.3085,1.2991,-1.1864,-2.0966
10654.0,6.4398,-11.6476,1.3085,1.4042,-3.5669,-1.5096
10659.0,6.4398,-11.6476,1.3085,1.4042,-3.5669,-1.5096
10664.0,6.4398,-11.6476,1.3085,1.4042,-3.5669,-1.5096
10669.0,6.4398,-11.6476,1.3085,1.4042,-3.5669,-1.5096
10674.0,10.2137,-9.8981,1.2185,1.4042,-3.5669,-1.5096
10679.0,10.2137,-9.8981,1.2185,1.4042,-3.5669,-1.5096
10684.0,10.2137,-9.8981,1.2185,0.3449,-4.2694,-1.5499
10689.0,10.2137,-9.8981,1.2185,0.3449,-4.2694,-1.5499
10695.0,10.2137,-9.8981,1.2185,0.3449,-4.2694,-1.5499
10699.0,11.4589,-5.1123,0.2138,0.3449,-4.2694,-1.5499
10704.0,11.4589,-5.1123,0.2138,0.3449,-4.2694,-1.5499
10709.0,11.4589,-5.1123,0.2138,0.3449,-4.2694,-1.5499
10714.0,11.4589,-5.1123,0.2138,0.3449,-4.2694,-1.5499
10720.0,11.4589,-5.1123,0.2138,-0.6996,1.7317,-4.3428
10724.0,11.4589,-5.1123,0.2138,-0.6996,1.7317,-4.3428
10729.0,8.0011,-4.5736,0.3038,-0.6996,1.7317,-4.3428
10734.0,8.0011,-4.5736,0.3038,-0.6996,1.7317,-4.3428
10739.0,8.0011,-4.5736,0.3038,-0.6996,1.7317,-4.3428
10744.0,8.0011,-4.5736,0.3038,-0.6996,1.7317,-4.3428
10749.0,8.0011,-4.5736,0.3038,-0.5781,-0.8357,-3.3324
10754.0,6.0087,-7.5767,0.972,-0.5781,-0.8357,-3.3324
10760.0,6.0087,-7.5767,0.972,-0.5781,-0.8357,-3.3324
10765.0,6.0087,-7.5767,0.972,-0.5781,-0.8357,-3.3324
10769.0,6.0087,-7.5767,0.972,-0.5781,-0.8357,-3.3324
10774.0,6.0087,-7.5767,0.972,-0.5781,-0.8357,-3.3324
10779.0,6.0087,-7.5767,0.972,-0.4046,-0.9683,-2.9225
10784.0,4.5624,-10.3176,0.6213,-0.4046,-0.9683,-2.9225
10794.0,4.5624,-10.3176,0.6213,-0.4046,-0.9683,-2.9225
10795.0,4.5624,-10.3176,0.6213,-0.4046,-0.9683,-2.9225
10799.0,4.5624,-10.3176,0.6213,-0.4046,-0.9683,-2.9225
10805.0,4.5624,-10.3176,0.6213,-0.4046,-0.9683,-2.9225
10810.0,3.9111,-10.5035,-0.4829,-0.4046,-0.9683,-2.9225
10814.0,3.9111,-10.5035,-0.4829,-0.8829,2.0079,-3.4699
10819.0,3.9111,-10.5035,-0.4829,-0.8829,2.0079,-3.4699
10824.0,3.9111,-10.5035,-0.4829,-0.8829,2.0079,-3.4699
10830.0,3.9111,-10.5035,-0.4829,-0.8829,2.0079,-3.4699
10834.0,3.9111,-10.5035,-0.4829,-0.8829,2.0079,-3.4699
10839.0,1.8948,-10.7705,-3.1083,-0.8829,2.0079,-3.4699
10844.0,1.8948,-10.7705,-3.1083,-0.9043,1.6224,-3.0135
10849.0,1.8948,-10.7705,-3.1083,-0.9043,1.6224,-3.0135
10854.0,1.8948,-10.7705,-3.1083,-0.9043,1.6224,-3.0135
10859.0,1.8948,-10.7705,-3.1083,-0.9043,1.6224,-3.0135
10864.0,-0.9596,-10.6704,-6.5489,-0.9043,1.6224,-3.0135
10869.0,-0.9596,-10.6704,-6.5489,-0.9043,1.6224,-3.0135
10874.0,-0.9596,-10.6704,-6.5489,-0.071,-1.1265,-3.0416
10879.0,-0.9596,-10.6704,-6.5489,-0.071,-1.1265,-3.0416
10884.0,-0.9596,-10.6704,-6.5489,-0.071,-1.1265,-3.0416
10889.0,-0.9596,-10.6704,-6.5489,-0.071,-1.1265,-3.0416
10894.0,-0.7632,-8.6016,-3.2789,-0.071,-1.1265,-3.0416
10899.0,-0.7632,-8.6016,-3.2789,-0.071,-1.1265,-3.0416
10904.0,-0.7632,-8.6016,-3.2789,-0.2977,-1.6012,-1.2591
10910.0,-0.7632,-8.6016,-3.2789,-0.2977,-1.6012,-1.2591
10914.0,-0.7632,-8.6016,-3.2789,-0.2977,-1.6012,-1.2591
10919.0,1.5116,-7.8913,-2.2174,-0.2977,-1.6012,-1.2591
10924.0,1.5116,-7.8913,-2.2174,-0.2977,-1.6012,-1.2591
10930.0,1.5116,-7.8913,-2.2174,-0.2977,-1.6012,-1.2591
10934.0,1.5116,-7.8913,-2.2174,-0.1841,-1.1986,-0.3862
10939.0,1.5116,-7.8913,-2.2174,-0.1841,-1.1986,-0.3862
10944.0,2.8143,-5.6366,0.0669,-0.1841,-1.1986,-0.3862
10949.0,2.8143,-5.6366,0.0669,-0.1841,-1.1986,-0.3862
10954.0,2.8143,-5.6366,0.0669,-0.1841,-1.1986,-0.3862
10959.0,2.8143,-5.6366,0.0669,-0.1841,-1.1986,-0.3862
10964.0,2.8143,-5.6366,0.0669,-0.1731,-0.055,-0.4485
10969.0,2.8143,-5.6366,0.0669,-0.1731,-0.055,-0.4485
10974.0,3.2885,-3.8777,0.1522,-0.1731,-0.055,-0.4485
10979.0,3.2885,-3.8777,0.1522,-0.1731,-0.055,-0.4485
10984.0,3.2885,-3.8777,0.1522,-0.1731,-0.055,-0.4485
10989.0,3.2885,-3.8777,0.1522,-0.1731,-0.055,-0.4485
10994.0,3.2885,-3.8777,0.1522,-0.068,0.0836,-0.4796
10999.0,3.2885,-3.8777,0.1522,-0.068,0.0836,-0.4796
11004.0,3.1735,-1.2988,-0.2649,-0.068,0.0836,-0.4796
11009.0,3.1735,-1.2988,-0.2649,-0.068,0.0836,-0.4796
11015.0,3.1735,-1.2988,-0.2649,-0.068,0.0836,-0.4796
11020.0,3.1735,-1.2988,-0.2649,-0.068,0.0836,-0.4796
11024.0,3.1735,-1.2988,-0.2649,0.169,0.6975,0.3438
11029.0,3.1735,-1.2988,-0.2649,0.169,0.6975,0.3438
11034.0,3.7386,-1.1177,-1.1037,0.169,0.6975,0.3438
11039.0,3.7386,-1.1177,-1.1037,0.169,0.6975,0.3438
11044.0,3.7386,-1.1177,-1.1037,0.169,0.6975,0.3438
11049.0,3.7386,-1.1177,-1.1037,0.169,0.6975,0.3438
11055.0,3.7386,-1.1177,-1.1037,0.224,1.2009,2.4079
11059.0,2.9436,-3.3247,-5.6816,0.224,1.2009,2.4079
11064.0,2.9436,-3.3247,-5.6816,0.224,1.2009,2.4079
11070.0,2.9436,-3.3247,-5.6816,0.224,1.2009,2.4079
11075.0,2.9436,-3.3247,-5.6816,0.224,1.2009,2.4079
11079.0,2.9436,-3.3247,-5.6816,0.224,1.2009,2.4079
11084.0,2.9436,-3.3247,-5.6816,0.9021,1.328,3.8801
11089.0,-0.8111,-10.413,-12.8139,0.9021,1.328,3.8801
11094.0,-0.8111,-10.413,-12.8139,0.9021,1.328,3.8801
11099.0,-0.8111,-10.413,-12.8139,0.9021,1.328,3.8801
