time in milliseconds,acceleration_x,acceleration_y,acceleration_z,Roll,Pitch,Yaw
6.0,-0.6962,2.6147,8.1375,0.049,2.2977,0.085
11.0,-0.6962,2.6147,8.1375,0.049,2.2977,0.085
16.0,-0.6962,2.6147,8.1375,0.049,2.2977,0.085
21.0,-0.6962,2.6147,8.1375,0.1908,3.0161,0.3947
26.0,1.1429,1.1656,7.2323,0.1908,3.0161,0.3947
31.0,1.1429,1.1656,7.2323,0.1908,3.0161,0.3947
36.0,1.1429,1.1656,7.2323,0.1908,3.0161,0.3947
41.0,1.1429,1.1656,7.2323,0.1908,3.0161,0.3947
47.0,1.1429,1.1656,7.2323,0.1908,3.0161,0.3947
51.0,-1.1751,1.6518,6.7158,-0.9045,1.5726,0.3147
56.0,-1.1751,1.6518,6.7158,-0.9045,1.5726,0.3147
61.0,-1.1751,1.6518,6.7158,-0.9045,1.5726,0.3147
66.0,-1.1751,1.6518,6.7158,-0.9045,1.5726,0.3147
71.0,-1.1751,1.6518,6.7158,-0.9045,1.5726,0.3147
76.0,-1.1751,1.6518,6.7158,-0.9045,1.5726,0.3147
81.0,-2.5161,2.281,6.4883,-1.6852,1.8414,0.0551
86.0,-2.5161,2.281,6.4883,-1.6852,1.8414,0.0551
91.0,-2.5161,2.281,6.4883,-1.6852,1.8414,0.0551
96.0,-2.5161,2.281,6.4883,-1.6852,1.8414,0.0551
101.0,-2.5161,2.281,6.4883,-1.6852,1.8414,0.0551
107.0,-2.6885,0.8939,6.9717,-1.6852,1.8414,0.0551
111.0,-2.6885,0.8939,6.9717,-1.6852,1.8414,0.0551
116.0,-2.6885,0.8939,6.9717,-1.8391,1.9648,-0.4574
121.0,-2.6885,0.8939,6.9717,-1.8391,1.9648,-0.4574
126.0,-2.6885,0.8939,6.9717,-1.8391,1.9648,-0.4574
131.0,-2.6885,0.8939,6.9717,-1.8391,1.9648,-0.4574
136.0,-5.246,0.8033,9.2986,-1.8391,1.9648,-0.4574
141.0,-5.246,0.8033,9.2986,-1.8391,1.9648,-0.4574
146.0,-5.246,0.8033,9.2986,-1.3725,1.3008,-0.2974
151.0,-5.246,0.8033,9.2986,-1.3725,1.3008,-0.2974
156.0,-5.246,0.8033,9.2986,-1.3725,1.3008,-0.2974
161.0,-3.9241,-0.3216,8.9052,-1.3725,1.3008,-0.2974
166.0,-3.9241,-0.3216,8.9052,-1.3725,1.3008,-0.2974
171.0,-3.9241,-0.3216,8.9052,-1.3725,1.3008,-0.2974
176.0,-3.9241,-0.3216,8.9052,-0.8966,1.0674,0.242
181.0,-3.9241,-0.3216,8.9052,-0.8966,1.0674,0.242
186.0,-2.7508,1.1799,7.3555,-0.8966,1.0674,0.242
191.0,-2.7508,1.1799,7.3555,-0.8966,1.0674,0.242
196.0,-2.7508,1.1799,7.3555,-0.8966,1.0674,0.242
201.0,-2.7508,1.1799,7.3555,-0.8966,1.0674,0.242
206.0,-2.7508,1.1799,7.3555,-0.8062,1.671,-0.0677
211.0,-3.7948,1.3372,6.4362,-0.8062,1.671,-0.0677
217.0,-3.7948,1.3372,6.4362,-0.8062,1.671,-0.0677
221.0,-3.7948,1.3372,6.4362,-0.8062,1.671,-0.0677
226.0,-3.7948,1.3372,6.4362,-0.8062,1.671,-0.0677
231.0,-3.7948,1.3372,6.4362,-0.8062,1.671,-0.0677
236.0,-3.7948,1.3372,6.4362,-0.7457,1.5787,-0.364
241.0,-4.767,0.8415,5.8817,-0.7457,1.5787,-0.364
246.0,-4.767,0.8415,5.8817,-0.7457,1.5787,-0.364
251.0,-4.767,0.8415,5.8817,-0.7457,1.5787,-0.364
256.0,-4.767,0.8415,5.8817,-0.7457,1.5787,-0.364
261.0,-4.767,0.8415,5.8817,-0.7457,1.5787,-0.364
266.0,-2.3197,0.0645,6.1613,-0.7457,1.5787,-0.364
271.0,-2.3197,0.0645,6.1613,-0.1617,2.6954,-0.1709
276.0,-2.3197,0.0645,6.1613,-0.1617,2.6954,-0.1709
281.0,-2.3197,0.0645,6.1613,-0.1617,2.6954,-0.1709
286.0,-2.3197,0.0645,6.1613,-0.1617,2.6954,-0.1709
291.0,-2.3197,0.0645,6.1613,-0.1617,2.6954,-0.1709
296.0,-0.677,-0.3836,2.9435,-0.304,3.5463,0.3495
301.0,-0.677,-0.3836,2.9435,-0.304,3.5463,0.3495
306.0,-0.677,-0.3836,2.9435,-0.304,3.5463,0.3495
311.0,-0.677,-0.3836,2.9435,-0.304,3.5463,0.3495
316.0,-0.677,-0.3836,2.9435,-0.304,3.5463,0.3495
321.0,-4.9011,-2.1092,1.1948,-0.304,3.5463,0.3495
326.0,-4.9011,-2.1092,1.1948,-0.304,3.5463,0.3495
331.0,-4.9011,-2.1092,1.1948,-2.3859,2.7931,0.0416
336.0,-4.9011,-2.1092,1.1948,-2.3859,2.7931,0.0416
341.0,-4.9011,-2.1092,1.1948,-2.3859,2.7931,0.0416
346.0,-4.9011,-2.1092,1.1948,-2.3859,2.7931,0.0416
351.0,-6.6205,-4.0731,2.1805,-2.3859,2.7931,0.0416
356.0,-6.6205,-4.0731,2.1805,-2.3859,2.7931,0.0416
361.0,-6.6205,-4.0731,2.1805,-3.8843,3.2934,0.0252
366.0,-6.6205,-4.0731,2.1805,-3.8843,3.2934,0.0252
371.0,-6.6205,-4.0731,2.1805,-3.8843,3.2934,0.0252
376.0,-6.6205,-4.0731,2.1805,-3.8843,3.2934,0.0252
381.0,-4.7574,-4.9168,1.2848,-3.8843,3.2934,0.0252
386.0,-4.7574,-4.9168,1.2848,-3.8843,3.2934,0.0252
391.0,-4.7574,-4.9168,1.2848,-3.8843,3.2934,0.0252
396.0,-4.7574,-4.9168,1.2848,-4.0859,3.2036,0.1351
401.0,-4.7574,-4.9168,1.2848,-4.0859,3.2036,0.1351
406.0,-3.9097,-6.9141,1.3512,-4.0859,3.2036,0.1351
411.0,-3.9097,-6.9141,1.3512,-4.0859,3.2036,0.1351
416.0,-3.9097,-6.9141,1.3512,-4.0859,3.2036,0.1351
421.0,-3.9097,-6.9141,1.3512,-4.0859,3.2036,0.1351
426.0,-3.9097,-6.9141,1.3512,-4.6369,4.6655,-0.5698
431.0,-1.8983,-9.1498,-2.5823,-4.6369,4.6655,-0.5698
436.0,-1.8983,-9.1498,-2.5823,-4.6369,4.6655,-0.5698
441.0,-1.8983,-9.1498,-2.5823,-4.6369,4.6655,-0.5698
446.0,-1.8983,-9.1498,-2.5823,-4.6369,4.6655,-0.5698
451.0,-1.8983,-9.1498,-2.5823,-4.6369,4.6655,-0.5698
456.0,-1.8983,-9.1498,-2.5823,-4.6369,4.6655,-0.5698
461.0,-5.768,-13.4876,-1.298,-5.5685,5.6465,-1.8612
466.0,-5.768,-13.4876,-1.298,-5.5685,5.6465,-1.8612
471.0,-5.768,-13.4876,-1.298,-5.5685,5.6465,-1.8612
476.0,-5.768,-13.4876,-1.298,-5.5685,5.6465,-1.8612
481.0,-5.768,-13.4876,-1.298,-5.5685,5.6465,-1.8612
486.0,-8.0333,-17.2152,0.1664,-5.5685,5.6465,-1.8612
492.0,-8.0333,-17.2152,0.1664,-5.5997,7.349,-2.039
496.0,-8.0333,-17.2152,0.1664,-5.5997,7.349,-2.039
501.0,-8.0333,-17.2152,0.1664,-5.5997,7.349,-2.039
509.0,-8.0333,-17.2152,0.1664,-5.5997,7.349,-2.039
511.0,-8.0333,-17.2152,0.1664,-5.5997,7.349,-2.039
516.0,-8.2871,-19.6081,0.01,-5.5997,7.349,-2.039
521.0,-8.2871,-19.6081,0.01,-6.5233,6.3496,-0.604
527.0,-8.2871,-19.6081,0.01,-6.5233,6.3496,-0.604
531.0,-8.2871,-19.6081,0.01,-6.5233,6.3496,-0.604
536.0,-8.2871,-19.6081,0.01,-6.5233,6.3496,-0.604
541.0,-17.6931,-23.7695,1.0478,-6.5233,6.3496,-0.604
546.0,-17.6931,-23.7695,1.0478,-6.5233,6.3496,-0.604
551.0,-17.6931,-23.7695,1.0478,-6.3345,2.8377,1.2915
556.0,-17.6931,-23.7695,1.0478,-6.3345,2.8377,1.2915
561.0,-17.6931,-23.7695,1.0478,-6.3345,2.8377,1.2915
566.0,-27.2764,-20.2993,2.6544,-6.3345,2.8377,1.2915
571.0,-27.2764,-20.2993,2.6544,-6.3345,2.8377,1.2915
576.0,-27.2764,-20.2993,2.6544,-6.3345,2.8377,1.2915
581.0,-27.2764,-20.2993,2.6544,-3.7787,-2.9417,3.5804
586.0,-27.2764,-20.2993,2.6544,-3.7787,-2.9417,3.5804
591.0,-27.2764,-20.2993,2.6544,-3.7787,-2.9417,3.5804
596.0,-24.4124,-14.5744,-0.4402,-3.7787,-2.9417,3.5804
601.0,-24.4124,-14.5744,-0.4402,-3.7787,-2.9417,3.5804
606.0,-24.4124,-14.5744,-0.4402,-3.7787,-2.9417,3.5804
611.0,-24.4124,-14.5744,-0.4402,-3.7787,-2.9417,3.5804
616.0,-24.4124,-14.5744,-0.4402,-2.64,-7.2679,2.6275
621.0,-19.9201,-11.2043,-3.3453,-2.64,-7.2679,2.6275
626.0,-19.9201,-11.2043,-3.3453,-2.64,-7.2679,2.6275
631.0,-19.9201,-11.2043,-3.3453,-2.64,-7.2679,2.6275
636.0,-19.9201,-11.2043,-3.3453,-2.64,-7.2679,2.6275
641.0,-19.9201,-11.2043,-3.3453,-2.64,-7.2679,2.6275
646.0,-19.9201,-11.2043,-3.3453,-1.0218,-8.1818,0.2347
651.0,-18.3253,-12.4675,4.7348,-1.0218,-8.1818,0.2347
656.0,-18.3253,-12.4675,4.7348,-1.0218,-8.1818,0.2347
661.0,-18.3253,-12.4675,4.7348,-1.0218,-8.1818,0.2347
666.0,-18.3253,-12.4675,4.7348,-1.0218,-8.1818,0.2347
671.0,-18.3253,-12.4675,4.7348,-1.0218,-8.1818,0.2347
676.0,-13.6702,-7.4003,-7.582,1.4528,-6.9447,0.2469
682.0,-13.6702,-7.4003,-7.582,1.4528,-6.9447,0.2469
686.0,-13.6702,-7.4003,-7.582,1.4528,-6.9447,0.2469
691.0,-13.6702,-7.4003,-7.582,1.4528,-6.9447,0.2469
696.0,-13.6702,-7.4003,-7.582,1.4528,-6.9447,0.2469
701.0,-13.6702,-7.4003,-7.582,1.4528,-6.9447,0.2469
706.0,-9.1827,-7.7912,-5.7101,1.7815,-6.7786,-0.4782
711.0,-9.1827,-7.7912,-5.7101,1.7815,-6.7786,-0.4782
716.0,-9.1827,-7.7912,-5.7101,1.7815,-6.7786,-0.4782
721.0,-9.1827,-7.7912,-5.7101,1.7815,-6.7786,-0.4782
726.0,-9.1827,-7.7912,-5.7101,1.7815,-6.7786,-0.4782
731.0,-5.7201,-11.8907,4.9955,1.7815,-6.7786,-0.4782
736.0,-5.7201,-11.8907,4.9955,3.2867,-2.161,0.1724
741.0,-5.7201,-11.8907,4.9955,3.2867,-2.161,0.1724
746.0,-5.7201,-11.8907,4.9955,3.2867,-2.161,0.1724
751.0,-5.7201,-11.8907,4.9955,3.2867,-2.161,0.1724
757.0,-3.4308,-7.3479,1.5123,3.2867,-2.161,0.1724
761.0,-3.4308,-7.3479,1.5123,3.2867,-2.161,0.1724
766.0,-3.4308,-7.3479,1.5123,2.6342,1.2238,-1.7415
771.0,-3.4308,-7.3479,1.5123,2.6342,1.2238,-1.7415
776.0,-3.4308,-7.3479,1.5123,2.6342,1.2238,-1.7415
781.0,-3.4308,-7.3479,1.5123,2.6342,1.2238,-1.7415
786.0,1.3249,-8.0915,5.1898,2.6342,1.2238,-1.7415
791.0,1.3249,-8.0915,5.1898,2.6342,1.2238,-1.7415
796.0,1.3249,-8.0915,5.1898,2.6342,1.2238,-1.7415
801.0,1.3249,-8.0915,5.1898,2.4785,5.3954,-2.6309
806.0,1.3249,-8.0915,5.1898,2.4785,5.3954,-2.6309
811.0,-1.9079,-12.3006,0.0052,2.4785,5.3954,-2.6309
816.0,-1.9079,-12.3006,0.0052,2.4785,5.3954,-2.6309
821.0,-1.9079,-12.3006,0.0052,2.4785,5.3954,-2.6309
826.0,-1.9079,-12.3006,0.0052,2.4785,5.3954,-2.6309
831.0,-1.9079,-12.3006,0.0052,5.0008,5.3533,1.735
842.0,-1.9079,-12.3006,0.0052,5.0008,5.3533,1.735
842.0,-1.9079,-12.3006,0.0052,5.0008,5.3533,1.735
847.0,-1.9079,-12.3006,0.0052,5.0008,5.3533,1.735
851.0,-1.7307,-5.1123,1.299,5.0008,5.3533,1.735
857.0,-1.7307,-5.1123,1.299,5.0008,5.3533,1.735
862.0,-1.7307,-5.1123,1.299,2.4241,4.3209,2.2029
866.0,-1.7307,-5.1123,1.299,2.4241,4.3209,2.2029
871.0,-1.7307,-5.1123,1.299,2.4241,4.3209,2.2029
876.0,-7.2862,-5.1123,0.9436,2.4241,4.3209,2.2029
881.0,-7.2862,-5.1123,0.9436,2.4241,4.3209,2.2029
886.0,-7.2862,-5.1123,0.9436,2.4241,4.3209,2.2029
891.0,-7.2862,-5.1123,0.9436,2.4241,4.3209,2.2029
896.0,-7.2862,-5.1123,0.9436,2.5347,3.3172,2.3244
901.0,-7.2862,-5.1123,0.9436,2.5347,3.3172,2.3244
906.0,-3.5601,-3.3867,-1.5018,2.5347,3.3172,2.3244
911.0,-3.5601,-3.3867,-1.5018,2.5347,3.3172,2.3244
916.0,-3.5601,-3.3867,-1.5018,2.5347,3.3172,2.3244
921.0,-3.5601,-3.3867,-1.5018,2.5347,3.3172,2.3244
926.0,-3.5601,-3.3867,-1.5018,0.7613,2.0393,1.4827
931.0,-0.1598,-2.9482,-0.7482,0.7613,2.0393,1.4827
937.0,-0.1598,-2.9482,-0.7482,0.7613,2.0393,1.4827
941.0,-0.1598,-2.9482,-0.7482,0.7613,2.0393,1.4827
946.0,-0.1598,-2.9482,-0.7482,0.7613,2.0393,1.4827
951.0,-0.1598,-2.9482,-0.7482,0.7613,2.0393,1.4827
956.0,-7.6166,-2.0282,-6.3451,1.2781,2.6044,0.5804
961.0,-7.6166,-2.0282,-6.3451,1.2781,2.6044,0.5804
966.0,-7.6166,-2.0282,-6.3451,1.2781,2.6044,0.5804
972.0,-7.6166,-2.0282,-6.3451,1.2781,2.6044,0.5804
976.0,-7.6166,-2.0282,-6.3451,1.2781,2.6044,0.5804
981.0,-7.6166,-2.0282,-6.3451,1.2781,2.6044,0.5804
986.0,-10.4614,-5.4793,-5.5916,0.9519,1.5653,0.5224
991.0,-10.4614,-5.4793,-5.5916,0.9519,1.5653,0.5224
996.0,-10.4614,-5.4793,-5.5916,0.9519,1.5653,0.5224
1001.0,-10.4614,-5.4793,-5.5916,0.9519,1.5653,0.5224
1006.0,-10.4614,-5.4793,-5.5916,0.9519,1.5653,0.5224
1011.0,-2.6167,-4.7119,7.4314,0.7216,2.7058,3.4546
1016.0,-2.6167,-4.7119,7.4314,0.7216,2.7058,3.4546
1021.0,-2.6167,-4.7119,7.4314,0.7216,2.7058,3.4546
1026.0,-2.6167,-4.7119,7.4314,0.7216,2.7058,3.4546
1032.0,-2.6167,-4.7119,7.4314,0.7216,2.7058,3.4546
1036.0,-2.6167,-4.7119,7.4314,0.7216,2.7058,3.4546
1041.0,2.3354,-12.2816,-1.7292,0.7216,2.7058,3.4546
1046.0,2.3354,-12.2816,-1.7292,-1.0939,4.1389,0.7747
1051.0,2.3354,-12.2816,-1.7292,-1.0939,4.1389,0.7747
1062.0,2.3354,-12.2816,-1.7292,-1.0939,4.1389,0.7747
1063.0,2.3354,-12.2816,-1.7292,-1.0939,4.1389,0.7747
1066.0,-5.0592,-11.8669,6.5452,-1.0939,4.1389,0.7747
1071.0,-5.0592,-11.8669,6.5452,-1.0939,4.1389,0.7747
1077.0,-5.0592,-11.8669,6.5452,-0.582,2.1878,0.4735
1081.0,-5.0592,-11.8669,6.5452,-0.582,2.1878,0.4735
1086.0,-5.0592,-11.8669,6.5452,-0.582,2.1878,0.4735
1091.0,-5.0592,-11.8669,6.5452,-0.582,2.1878,0.4735
1100.0,-2.5927,-9.922,-2.6865,-0.582,2.1878,0.4735
1101.0,-2.5927,-9.922,-2.6865,-0.582,2.1878,0.4735
1106.0,-2.5927,-9.922,-2.6865,-2.8746,3.1535,4.0007
1112.0,-2.5927,-9.922,-2.6865,-2.8746,3.1535,4.0007
1116.0,-2.5927,-9.922,-2.6865,-2.8746,3.1535,4.0007
1122.0,-2.5927,-9.922,-2.6865,-2.8746,3.1535,4.0007
1126.0,-10.8398,-12.3197,2.7113,-2.8746,3.1535,4.0007
1131.0,-10.8398,-12.3197,2.7113,-2.8746,3.1535,4.0007
1136.0,-10.8398,-12.3197,2.7113,-1.1971,1.2165,2.2457
1141.0,-10.8398,-12.3197,2.7113,-1.1971,1.2165,2.2457
1146.0,-10.8398,-12.3197,2.7113,-1.1971,1.2165,2.2457
1152.0,-2.4778,-10.1937,-0.8004,-1.1971,1.2165,2.2457
1156.0,-2.4778,-10.1937,-0.8004,-1.1971,1.2165,2.2457
1161.0,-2.4778,-10.1937,-0.8004,-1.1971,1.2165,2.2457
1166.0,-2.4778,-10.1937,-0.8004,-1.7096,0.1884,1.8767
1171.0,-2.4778,-10.1937,-0.8004,-1.7096,0.1884,1.8767
1176.0,-1.9749,-9.4072,-0.8194,-1.7096,0.1884,1.8767
1181.0,-1.9749,-9.4072,-0.8194,-1.7096,0.1884,1.8767
1186.0,-1.9749,-9.4072,-0.8194,-1.7096,0.1884,1.8767
1191.0,-1.9749,-9.4072,-0.8194,-1.7096,0.1884,1.8767
1196.0,-1.9749,-9.4072,-0.8194,-1.7096,0.1884,1.8767
1201.0,-1.9749,-9.4072,-0.8194,-0.7377,-0.7023,1.1418
1206.0,-7.5208,-13.9166,-1.2695,-0.7377,-0.7023,1.1418
1211.0,-7.5208,-13.9166,-1.2695,-0.7377,-0.7023,1.1418
1216.0,-7.5208,-13.9166,-1.2695,-0.7377,-0.7023,1.1418
1221.0,-7.5208,-13.9166,-1.2695,-0.7377,-0.7023,1.1418
1226.0,-7.5208,-13.9166,-1.2695,-0.7377,-0.7023,1.1418
1231.0,-7.4682,-10.8658,-6.165,-0.3266,-2.2068,-0.1948
1236.0,-7.4682,-10.8658,-6.165,-0.3266,-2.2068,-0.1948
1241.0,-7.4682,-10.8658,-6.165,-0.3266,-2.2068,-0.1948
1246.0,-7.4682,-10.8658,-6.165,-0.3266,-2.2068,-0.1948
1251.0,-7.4682,-10.8658,-6.165,-0.3266,-2.2068,-0.1948
1256.0,-4.427,-5.6176,-3.0941,-0.3266,-2.2068,-0.1948
1261.0,-4.427,-5.6176,-3.0941,-0.6009,-2.6131,-0.8423
1266.0,-4.427,-5.6176,-3.0941,-0.6009,-2.6131,-0.8423
1271.0,-4.427,-5.6176,-3.0941,-0.6009,-2.6131,-0.8423
1277.0,-4.427,-5.6176,-3.0941,-0.6009,-2.6131,-0.8423
1281.0,-4.427,-5.6176,-3.0941,-0.6009,-2.6131,-0.8423
1286.0,-4.3408,-6.5376,-3.2505,-0.6009,-2.6131,-0.8423
1291.0,-4.3408,-6.5376,-3.2505,-0.6009,-2.6131,-0.8423
1296.0,-4.3408,-6.5376,-3.2505,-0.1721,-3.1201,-0.8264
1301.0,-4.3408,-6.5376,-3.2505,-0.1721,-3.1201,-0.8264
1306.0,-4.3408,-6.5376,-3.2505,-0.1721,-3.1201,-0.8264
1311.0,-8.244,-9.6503,-0.843,-0.1721,-3.1201,-0.8264
1316.0,-8.244,-9.6503,-0.843,-0.1721,-3.1201,-0.8264
1322.0,-8.244,-9.6503,-0.843,0.8139,-2.5642,0.3043
1326.0,-8.244,-9.6503,-0.843,0.8139,-2.5642,0.3043
1331.0,-8.244,-9.6503,-0.843,0.8139,-2.5642,0.3043
1336.0,-8.244,-9.6503,-0.843,0.8139,-2.5642,0.3043
1341.0,-8.402,-10.4559,-2.2174,0.8139,-2.5642,0.3043
1347.0,-8.402,-10.4559,-2.2174,0.8139,-2.5642,0.3043
1351.0,-8.402,-10.4559,-2.2174,0.8139,-2.5642,0.3043
1356.0,-8.402,-10.4559,-2.2174,2.2745,-4.5141,-0.1532
1361.0,-8.402,-10.4559,-2.2174,2.2745,-4.5141,-0.1532
1367.0,1.5308,-7.0238,-0.5397,2.2745,-4.5141,-0.1532
1371.0,1.5308,-7.0238,-0.5397,2.2745,-4.5141,-0.1532
1376.0,1.5308,-7.0238,-0.5397,2.2745,-4.5141,-0.1532
1381.0,1.5308,-7.0238,-0.5397,2.2745,-4.5141,-0.1532
1386.0,1.5308,-7.0238,-0.5397,4.3209,-3.0706,-2.5521
1391.0,3.3986,-1.6992,4.1377,4.3209,-3.0706,-2.5521
1396.0,3.3986,-1.6992,4.1377,4.3209,-3.0706,-2.5521
1401.0,3.3986,-1.6992,4.1377,4.3209,-3.0706,-2.5521
1406.0,3.3986,-1.6992,4.1377,4.3209,-3.0706,-2.5521
1411.0,3.3986,-1.6992,4.1377,4.3209,-3.0706,-2.5521
1416.0,1.8134,-3.9778,3.5406,5.622,-1.5856,-2.4709
1421.0,1.8134,-3.9778,3.5406,5.622,-1.5856,-2.4709
1427.0,1.8134,-3.9778,3.5406,5.622,-1.5856,-2.4709
1432.0,1.8134,-3.9778,3.5406,5.622,-1.5856,-2.4709
1436.0,1.8134,-3.9778,3.5406,5.622,-1.5856,-2.4709
1444.0,1.8134,-3.9778,3.5406,5.622,-1.5856,-2.4709
1447.0,1.0375,-3.0864,4.9054,4.5292,-0.6815,-1.0439
1451.0,1.0375,-3.0864,4.9054,4.5292,-0.6815,-1.0439
1456.0,1.0375,-3.0864,4.9054,4.5292,-0.6815,-1.0439
1461.0,1.0375,-3.0864,4.9054,4.5292,-0.6815,-1.0439
1466.0,1.0375,-3.0864,4.9054,4.5292,-0.6815,-1.0439
1471.0,1.0375,-3.0864,4.9054,4.5292,-0.6815,-1.0439
1476.0,-1.1464,-2.4476,4.133,-1.6559,-1.2618,1.2389
1481.0,-1.1464,-2.4476,4.133,-1.6559,-1.2618,1.2389
1486.0,-1.1464,-2.4476,4.133,-1.6559,-1.2618,1.2389
1491.0,-1.1464,-2.4476,4.133,-1.6559,-1.2618,1.2389
1496.0,-1.1464,-2.4476,4.133,-1.6559,-1.2618,1.2389
1501.0,-2.358,-7.7722,3.9197,-1.6559,-1.2618,1.2389
1506.0,-2.358,-7.7722,3.9197,-3.125,3.6007,0.8297
1512.0,-2.358,-7.7722,3.9197,-3.125,3.6007,0.8297
1516.0,-2.358,-7.7722,3.9197,-3.125,3.6007,0.8297
1521.0,-2.358,-7.7722,3.9197,-3.125,3.6007,0.8297
1526.0,-2.358,-7.7722,3.9197,-3.125,3.6007,0.8297
1532.0,-3.972,-11.209,-12.0035,-3.125,3.6007,0.8297
1537.0,-3.972,-11.209,-12.0035,-3.1782,1.2134,0.1687
1541.0,-3.972,-11.209,-12.0035,-3.1782,1.2134,0.1687
1547.0,-3.972,-11.209,-12.0035,-3.1782,1.2134,0.1687
1551.0,-3.972,-11.209,-12.0035,-3.1782,1.2134,0.1687
1556.0,-7.7938,-9.8124,-2.8145,-3.1782,1.2134,0.1687
1561.0,-7.7938,-9.8124,-2.8145,-3.1782,1.2134,0.1687
1566.0,-7.7938,-9.8124,-2.8145,-5.9857,1.1994,-1.4794
1571.0,-7.7938,-9.8124,-2.8145,-5.9857,1.1994,-1.4794
1576.0,-7.7938,-9.8124,-2.8145,-5.9857,1.1994,-1.4794
1581.0,-7.7938,-9.8124,-2.8145,-5.9857,1.1994,-1.4794
1586.0,-12.9566,-12.3245,7.1944,-5.9857,1.1994,-1.4794
1591.0,-12.9566,-12.3245,7.1944,-5.9857,1.1994,-1.4794
1596.0,-12.9566,-12.3245,7.1944,-5.9857,1.1994,-1.4794
1601.0,-12.9566,-12.3245,7.1944,-4.8171,1.1077,1.76
1606.0,-12.9566,-12.3245,7.1944,-4.8171,1.1077,1.76
1611.0,-9.3359,-11.7763,-0.3833,-4.8171,1.1077,1.76
1616.0,-9.3359,-11.7763,-0.3833,-4.8171,1.1077,1.76
1621.0,-9.3359,-11.7763,-0.3833,-4.8171,1.1077,1.76
1626.0,-9.3359,-11.7763,-0.3833,-4.8171,1.1077,1.76
1631.0,-9.3359,-11.7763,-0.3833,-4.9857,0.7993,1.8846
1636.0,-9.3359,-11.7763,-0.3833,-4.9857,0.7993,1.8846
1641.0,-5.9883,-8.5015,-2.696,-4.9857,0.7993,1.8846
1646.0,-5.9883,-8.5015,-2.696,-4.9857,0.7993,1.8846
1651.0,-5.9883,-8.5015,-2.696,-4.9857,0.7993,1.8846
1656.0,-5.9883,-8.5015,-2.696,-4.9857,0.7993,1.8846
1661.0,-5.9883,-8.5015,-2.696,-4.8648,0.7321,0.862
1666.0,-4.4845,-7.5291,-2.6297,-4.8648,0.7321,0.862
1671.0,-4.4845,-7.5291,-2.6297,-4.8648,0.7321,0.862
1676.0,-4.4845,-7.5291,-2.6297,-4.8648,0.7321,0.862
1681.0,-4.4845,-7.5291,-2.6297,-4.8648,0.7321,0.862
1686.0,-4.4845,-7.5291,-2.6297,-4.8648,0.7321,0.862
1691.0,-2.6263,-6.8522,0.8583,-3.5062,0.1774,-0.3469
1697.0,-2.6263,-6.8522,0.8583,-3.5062,0.1774,-0.3469
1701.0,-2.6263,-6.8522,0.8583,-3.5062,0.1774,-0.3469
1706.0,-2.6263,-6.8522,0.8583,-3.5062,0.1774,-0.3469
1711.0,-2.6263,-6.8522,0.8583,-3.5062,0.1774,-0.3469
1716.0,-2.6263,-6.8522,0.8583,-3.5062,0.1774,-0.3469
1721.0,-1.2805,-7.6911,2.1426,-3.5062,0.1774,-0.3469
1727.0,-1.2805,-7.6911,2.1426,-2.6882,1.9721,-0.4214
1731.0,-1.2805,-7.6911,2.1426,-2.6882,1.9721,-0.4214
1736.0,-1.2805,-7.6911,2.1426,-2.6882,1.9721,-0.4214
1741.0,-1.2805,-7.6911,2.1426,-2.6882,1.9721,-0.4214
1746.0,1.4446,-11.4426,3.5975,-2.6882,1.9721,-0.4214
1751.0,1.4446,-11.4426,3.5975,-2.6882,1.9721,-0.4214
1756.0,1.4446,-11.4426,3.5975,-2.767,4.148,0.0166
1761.0,1.4446,-11.4426,3.5975,-2.767,4.148,0.0166
1766.0,1.4446,-11.4426,3.5975,-2.767,4.148,0.0166
1771.0,7.1581,-17.9731,-11.468,-2.767,4.148,0.0166
1776.0,7.1581,-17.9731,-11.468,-2.767,4.148,0.0166
1781.0,7.1581,-17.9731,-11.468,-2.767,4.148,0.0166
1786.0,7.1581,-17.9731,-11.468,-4.4793,2.8029,-1.251
1792.0,7.1581,-17.9731,-11.468,-4.4793,2.8029,-1.251
1796.0,7.1581,-17.9731,-11.468,-4.4793,2.8029,-1.251
1801.0,5.7788,-16.1522,4.4268,-4.4793,2.8029,-1.251
1806.0,5.7788,-16.1522,4.4268,-4.4793,2.8029,-1.251
1811.0,5.7788,-16.1522,4.4268,-4.4793,2.8029,-1.251
1817.0,5.7788,-16.1522,4.4268,-3.2185,4.7491,-1.0414
1821.0,5.7788,-16.1522,4.4268,-3.2185,4.7491,-1.0414
1826.0,6.32,-14.5029,1.9483,-3.2185,4.7491,-1.0414
1832.0,6.32,-14.5029,1.9483,-3.2185,4.7491,-1.0414
1837.0,6.32,-14.5029,1.9483,-3.2185,4.7491,-1.0414
1841.0,6.32,-14.5029,1.9483,-3.2185,4.7491,-1.0414
1846.0,6.32,-14.5029,1.9483,-3.2185,4.7491,-1.0414
1852.0,7.0049,-7.8437,-0.2127,0.6227,4.6056,-1.1233
1856.0,7.0049,-7.8437,-0.2127,0.6227,4.6056,-1.1233
1862.0,7.0049,-7.8437,-0.2127,0.6227,4.6056,-1.1233
1866.0,7.0049,-7.8437,-0.2127,0.6227,4.6056,-1.1233
1871.0,7.0049,-7.8437,-0.2127,0.6227,4.6056,-1.1233
1876.0,7.0049,-7.8437,-0.2127,0.6227,4.6056,-1.1233
1881.0,7.8669,-5.384,-8.0843,0.178,-0.1787,-0.8869
1886.0,7.8669,-5.384,-8.0843,0.178,-0.1787,-0.8869
1891.0,7.8669,-5.384,-8.0843,0.178,-0.1787,-0.8869
1896.0,7.8669,-5.384,-8.0843,0.178,-0.1787,-0.8869
1901.0,7.8669,-5.384,-8.0843,0.178,-0.1787,-0.8869
1906.0,7.8669,-5.384,-8.0843,0.178,-0.1787,-0.8869
1911.0,6.4493,-8.0057,-5.3025,-0.0376,-0.8916,0.6476
1917.0,6.4493,-8.0057,-5.3025,-0.0376,-0.8916,0.6476
1921.0,6.4493,-8.0057,-5.3025,-0.0376,-0.8916,0.6476
1926.0,6.4493,-8.0057,-5.3025,-0.0376,-0.8916,0.6476
1932.0,6.4493,-8.0057,-5.3025,-0.0376,-0.8916,0.6476
1936.0,5.0988,-8.2202,-1.5302,-0.0376,-0.8916,0.6476
1941.0,5.0988,-8.2202,-1.5302,0.0656,-2.8714,0.9066
1946.0,5.0988,-8.2202,-1.5302,0.0656,-2.8714,0.9066
1952.0,5.0988,-8.2202,-1.5302,0.0656,-2.8714,0.9066
1956.0,5.0988,-8.2202,-1.5302,0.0656,-2.8714,0.9066
1961.0,4.7396,-8.4157,0.991,0.0656,-2.8714,0.9066
1967.0,4.7396,-8.4157,0.991,0.0656,-2.8714,0.9066
1972.0,4.7396,-8.4157,0.991,0.0656,-2.8714,0.9066
1976.0,4.7396,-8.4157,0.991,0.2134,-3.1714,1.1528
1981.0,4.7396,-8.4157,0.991,0.2134,-3.1714,1.1528
1986.0,4.1218,-9.3118,1.8108,0.2134,-3.1714,1.1528
1991.0,4.1218,-9.3118,1.8108,0.2134,-3.1714,1.1528
1996.0,4.1218,-9.3118,1.8108,0.2134,-3.1714,1.1528
2001.0,4.1218,-9.3118,1.8108,0.2134,-3.1714,1.1528
2006.0,4.1218,-9.3118,1.8108,0.1016,-1.8385,1.1778
2011.0,4.1218,-9.3118,1.8108,0.1016,-1.8385,1.1778
2017.0,3.4561,-9.7695,1.9483,0.1016,-1.8385,1.1778
2021.0,3.4561,-9.7695,1.9483,0.1016,-1.8385,1.1778
2026.0,3.4561,-9.7695,1.9483,0.1016,-1.8385,1.1778
2032.0,3.4561,-9.7695,1.9483,0.1016,-1.8385,1.1778
2037.0,3.4561,-9.7695,1.9483,-0.0938,-0.5294,0.6525
2041.0,2.5605,-8.921,1.0289,-0.0938,-0.5294,0.6525
2047.0,2.5605,-8.921,1.0289,-0.0938,-0.5294,0.6525
2051.0,2.5605,-8.921,1.0289,-0.0938,-0.5294,0.6525
2056.0,2.5605,-8.921,1.0289,-0.0938,-0.5294,0.6525
2061.0,2.5605,-8.921,1.0289,-0.0938,-0.5294,0.6525
2066.0,1.6218,-8.5825,-0.1416,-0.2563,-0.07,0.0929
2071.0,1.6218,-8.5825,-0.1416,-0.2563,-0.07,0.0929
2076.0,1.6218,-8.5825,-0.1416,-0.2563,-0.07,0.0929
2081.0,1.6218,-8.5825,-0.1416,-0.2563,-0.07,0.0929
2086.0,1.6218,-8.5825,-0.1416,-0.2563,-0.07,0.0929
2091.0,1.6218,-8.5825,-0.1416,-0.2563,-0.07,0.0929
2096.0,2.0576,-8.9257,0.8441,-0.2563,-0.07,0.0929
2101.0,2.0576,-8.9257,0.8441,-0.227,0.3216,-0.017
2106.0,2.0576,-8.9257,0.8441,-0.227,0.3216,-0.017
2111.0,2.0576,-8.9257,0.8441,-0.227,0.3216,-0.017
2116.0,2.0576,-8.9257,0.8441,-0.227,0.3216,-0.017
2121.0,3.3603,-9.6503,0.6498,-0.227,0.3216,-0.017
2126.0,3.3603,-9.6503,0.6498,-0.227,0.3216,-0.017
2131.0,3.3603,-9.6503,0.6498,-0.1317,0.627,0.0099
2136.0,3.3603,-9.6503,0.6498,-0.1317,0.627,0.0099
2141.0,3.3603,-9.6503,0.6498,-0.1317,0.627,0.0099
2147.0,3.3603,-9.6503,0.6498,-0.1317,0.627,0.0099
2151.0,2.6898,-9.9839,0.1095,-0.1317,0.627,0.0099
2157.0,2.6898,-9.9839,0.1095,-0.1317,0.627,0.0099
2161.0,2.6898,-9.9839,0.1095,-0.1244,0.2531,-0.0983
2166.0,2.6898,-9.9839,0.1095,-0.1244,0.2531,-0.0983
2172.0,2.6898,-9.9839,0.1095,-0.1244,0.2531,-0.0983
2177.0,1.6314,-9.4977,0.3749,-0.1244,0.2531,-0.0983
2181.0,1.6314,-9.4977,0.3749,-0.1244,0.2531,-0.0983
2187.0,1.6314,-9.4977,0.3749,-0.1244,0.2531,-0.0983
2191.0,1.6314,-9.4977,0.3749,-0.0297,-0.0743,0.1241
2196.0,1.6314,-9.4977,0.3749,-0.0297,-0.0743,0.1241
2201.0,1.6314,-9.4977,0.3749,-0.0297,-0.0743,0.1241
2207.0,1.6026,-10.1699,0.9862,-0.0297,-0.0743,0.1241
2211.0,1.6026,-10.1699,0.9862,-0.0297,-0.0743,0.1241
2216.0,1.6026,-10.1699,0.9862,-0.0297,-0.0743,0.1241
2221.0,1.6026,-10.1699,0.9862,-0.0297,-0.0743,0.1241
2226.0,1.6026,-10.1699,0.9862,-0.0468,0.3271,0.57
2231.0,0.9609,-10.9135,0.7209,-0.0468,0.3271,0.57
2236.0,0.9609,-10.9135,0.7209,-0.0468,0.3271,0.57
2241.0,0.9609,-10.9135,0.7209,-0.0468,0.3271,0.57
2246.0,0.9609,-10.9135,0.7209,-0.0468,0.3271,0.57
2251.0,0.9609,-10.9135,0.7209,-0.0468,0.3271,0.57
2256.0,-0.5764,-7.9247,-0.1796,0.3618,0.5946,0.3275
2261.0,-0.5764,-7.9247,-0.1796,0.3618,0.5946,0.3275
2267.0,-0.5764,-7.9247,-0.1796,0.3618,0.5946,0.3275
2272.0,-0.5764,-7.9247,-0.1796,0.3618,0.5946,0.3275
2276.0,-0.5764,-7.9247,-0.1796,0.3618,0.5946,0.3275
2281.0,-0.5764,-7.9247,-0.1796,0.3618,0.5946,0.3275
2287.0,-0.2939,-8.8018,3.4032,-0.2521,0.1811,-0.1575
2292.0,-0.2939,-8.8018,3.4032,-0.2521,0.1811,-0.1575
2297.0,-0.2939,-8.8018,3.4032,-0.2521,0.1811,-0.1575
2301.0,-0.2939,-8.8018,3.4032,-0.2521,0.1811,-0.1575
2306.0,-0.2939,-8.8018,3.4032,-0.2521,0.1811,-0.1575
2311.0,2.4886,-12.2577,1.5928,-0.2521,0.1811,-0.1575
2316.0,2.4886,-12.2577,1.5928,0.0668,1.8029,0.5419
2321.0,2.4886,-12.2577,1.5928,0.0668,1.8029,0.5419
2326.0,2.4886,-12.2577,1.5928,0.0668,1.8029,0.5419
2332.0,2.4886,-12.2577,1.5928,0.0668,1.8029,0.5419
2336.0,5.5394,-11.6714,0.2612,0.0668,1.8029,0.5419
2341.0,5.5394,-11.6714,0.2612,0.0668,1.8029,0.5419
2346.0,5.5394,-11.6714,0.2612,0.3405,2.1224,0.3703
2351.0,5.5394,-11.6714,0.2612,0.3405,2.1224,0.3703
2356.0,5.5394,-11.6714,0.2612,0.3405,2.1224,0.3703
2361.0,5.5394,-11.6714,0.2612,0.3405,2.1224,0.3703
2366.0,6.9283,-10.842,-0.3265,0.3405,2.1224,0.3703
2372.0,6.9283,-10.842,-0.3265,0.3405,2.1224,0.3703
2376.0,6.9283,-10.842,-0.3265,0.4028,1.1762,0.4179
2381.0,6.9283,-10.842,-0.3265,0.4028,1.1762,0.4179
2386.0,6.9283,-10.842,-0.3265,0.4028,1.1762,0.4179
2391.0,6.9283,-10.842,-0.3265,0.4028,1.1762,0.4179
2396.0,4.2415,-5.5222,-0.3691,0.4028,1.1762,0.4179
2402.0,4.2415,-5.5222,-0.3691,0.4028,1.1762,0.4179
2406.0,4.2415,-5.5222,-0.3691,0.4028,1.1762,0.4179
2412.0,4.2415,-5.5222,-0.3691,0.214,-0.0743,0.6207
2416.0,4.2415,-5.5222,-0.3691,0.214,-0.0743,0.6207
2421.0,3.2693,-6.8855,0.4365,0.214,-0.0743,0.6207
2426.0,3.2693,-6.8855,0.4365,0.214,-0.0743,0.6207
2431.0,3.2693,-6.8855,0.4365,0.214,-0.0743,0.6207
2436.0,3.2693,-6.8855,0.4365,0.214,-0.0743,0.6207
2441.0,3.2693,-6.8855,0.4365,0.0534,0.1316,0.5878
2447.0,2.9819,-8.9829,0.7019,0.0534,0.1316,0.5878
2451.0,2.9819,-8.9829,0.7019,0.0534,0.1316,0.5878
2456.0,2.9819,-8.9829,0.7019,0.0534,0.1316,0.5878
2461.0,2.9819,-8.9829,0.7019,0.0534,0.1316,0.5878
2466.0,2.9819,-8.9829,0.7019,0.0534,0.1316,0.5878
2471.0,1.8086,-7.9199,1.6829,-0.6956,0.5793,0.0056
2476.0,1.8086,-7.9199,1.6829,-0.6956,0.5793,0.0056
2481.0,1.8086,-7.9199,1.6829,-0.6956,0.5793,0.0056
2486.0,1.8086,-7.9199,1.6829,-0.6956,0.5793,0.0056
2491.0,1.8086,-7.9199,1.6829,-0.6956,0.5793,0.0056
2497.0,1.8086,-7.9199,1.6829,-0.6956,0.5793,0.0056
2501.0,1.5739,-9.064,1.8156,-0.6956,0.5793,0.0056
2506.0,1.5739,-9.064,1.8156,-0.7982,2.5842,-0.0231
2511.0,1.5739,-9.064,1.8156,-0.7982,2.5842,-0.0231
2516.0,1.5739,-9.064,1.8156,-0.7982,2.5842,-0.0231
2522.0,1.5739,-9.064,1.8156,-0.7982,2.5842,-0.0231
2526.0,2.8814,-10.6894,0.555,-0.7982,2.5842,-0.0231
2531.0,2.8814,-10.6894,0.555,-0.7982,2.5842,-0.0231
2536.0,2.8814,-10.6894,0.555,0.0711,2.28,0.6892
2541.0,2.8814,-10.6894,0.555,0.0711,2.28,0.6892
2546.0,2.8814,-10.6894,0.555,0.0711,2.28,0.6892
2551.0,4.9982,-11.4903,-2.4069,0.0711,2.28,0.6892
2556.0,4.9982,-11.4903,-2.4069,0.0711,2.28,0.6892
2562.0,4.9982,-11.4903,-2.4069,0.0711,2.28,0.6892
2566.0,4.9982,-11.4903,-2.4069,0.2531,0.2623,1.3941
2572.0,4.9982,-11.4903,-2.4069,0.2531,0.2623,1.3941
2576.0,4.9982,-11.4903,-2.4069,0.2531,0.2623,1.3941
2581.0,6.3919,-8.3728,-4.0182,0.2531,0.2623,1.3941
2586.0,6.3919,-8.3728,-4.0182,0.2531,0.2623,1.3941
2591.0,6.3919,-8.3728,-4.0182,0.2531,0.2623,1.3941
2597.0,6.3919,-8.3728,-4.0182,-0.3516,-0.2795,-0.2552
2602.0,6.3919,-8.3728,-4.0182,-0.3516,-0.2795,-0.2552
2606.0,4.4905,-8.8924,-0.0279,-0.3516,-0.2795,-0.2552
2612.0,4.4905,-8.8924,-0.0279,-0.3516,-0.2795,-0.2552
2616.0,4.4905,-8.8924,-0.0279,-0.3516,-0.2795,-0.2552
2621.0,4.4905,-8.8924,-0.0279,-0.3516,-0.2795,-0.2552
2626.0,4.4905,-8.8924,-0.0279,-0.6394,-1.2319,0.2536
2631.0,2.9101,-13.5257,2.2421,-0.6394,-1.2319,0.2536
2636.0,2.9101,-13.5257,2.2421,-0.6394,-1.2319,0.2536
2641.0,2.9101,-13.5257,2.2421,-0.6394,-1.2319,0.2536
2646.0,2.9101,-13.5257,2.2421,-0.6394,-1.2319,0.2536
2651.0,2.9101,-13.5257,2.2421,-0.6394,-1.2319,0.2536
2656.0,2.9101,-13.5257,2.2421,-0.6394,-1.2319,0.2536
2661.0,1.0854,-15.4753,3.0288,-0.0181,-0.2264,1.2249
2667.0,1.0854,-15.4753,3.0288,-0.0181,-0.2264,1.2249
2671.0,1.0854,-15.4753,3.0288,-0.0181,-0.2264,1.2249
2676.0,1.0854,-15.4753,3.0288,-0.0181,-0.2264,1.2249
2681.0,1.0854,-15.4753,3.0288,-0.0181,-0.2264,1.2249
2686.0,1.0854,-15.4753,3.0288,-0.0181,-0.2264,1.2249
2692.0,0.664,-14.0786,1.5976,0.8951,0.5036,1.1284
2696.0,0.664,-14.0786,1.5976,0.8951,0.5036,1.1284
2701.0,0.664,-14.0786,1.5976,0.8951,0.5036,1.1284
2706.0,0.664,-14.0786,1.5976,0.8951,0.5036,1.1284
2711.0,0.664,-14.0786,1.5976,0.8951,0.5036,1.1284
2716.0,2.1917,-11.3902,-7.9516,0.8951,0.5036,1.1284
2721.0,2.1917,-11.3902,-7.9516,0.8951,0.5036,1.1284
2726.0,2.1917,-11.3902,-7.9516,0.6752,-1.0828,-0.1196
2731.0,2.1917,-11.3902,-7.9516,0.6752,-1.0828,-0.1196
2736.0,2.1917,-11.3902,-7.9516,0.6752,-1.0828,-0.1196
2741.0,3.0969,-11.7429,1.1948,0.6752,-1.0828,-0.1196
2746.0,3.0969,-11.7429,1.1948,0.6752,-1.0828,-0.1196
2751.0,3.0969,-11.7429,1.1948,0.6752,-1.0828,-0.1196
2756.0,3.0969,-11.7429,1.1948,-0.249,-0.6033,-0.7879
2761.0,3.0969,-11.7429,1.1948,-0.249,-0.6033,-0.7879
2766.0,3.0969,-11.7429,1.1948,-0.249,-0.6033,-0.7879
2771.0,2.9149,-9.2975,1.8867,-0.249,-0.6033,-0.7879
2776.0,2.9149,-9.2975,1.8867,-0.249,-0.6033,-0.7879
2781.0,2.9149,-9.2975,1.8867,-0.249,-0.6033,-0.7879
2786.0,2.9149,-9.2975,1.8867,-0.202,-0.7261,-1.499
2792.0,2.9149,-9.2975,1.8867,-0.202,-0.7261,-1.499
2796.0,2.8957,-9.064,2.2563,-0.202,-0.7261,-1.499
2801.0,2.8957,-9.064,2.2563,-0.202,-0.7261,-1.499
2806.0,2.8957,-9.064,2.2563,-0.202,-0.7261,-1.499
2811.0,2.8957,-9.064,2.2563,-0.202,-0.7261,-1.499
2816.0,2.8957,-9.064,2.2563,0.1407,-0.7047,-2.0854
2822.0,2.4695,-8.1297,1.0289,0.1407,-0.7047,-2.0854
2826.0,2.4695,-8.1297,1.0289,0.1407,-0.7047,-2.0854
2831.0,2.4695,-8.1297,1.0289,0.1407,-0.7047,-2.0854
2836.0,2.4695,-8.1297,1.0289,0.1407,-0.7047,-2.0854
2841.0,2.4695,-8.1297,1.0289,0.1407,-0.7047,-2.0854
2847.0,2.4695,-8.1297,1.0289,0.2708,0.1004,-3.031
2851.0,2.4264,-9.064,-1.3549,0.2708,0.1004,-3.031
2856.0,2.4264,-9.064,-1.3549,0.2708,0.1004,-3.031
2861.0,2.4264,-9.064,-1.3549,0.2708,0.1004,-3.031
2866.0,2.4264,-9.064,-1.3549,0.2708,0.1004,-3.031
2871.0,2.4264,-9.064,-1.3549,0.2708,0.1004,-3.031
2876.0,2.4264,-9.064,-1.3549,0.2934,-1.1689,-3.4611
2881.0,3.5614,-10.637,1.1948,0.2934,-1.1689,-3.4611
2886.0,3.5614,-10.637,1.1948,0.2934,-1.1689,-3.4611
2891.0,3.5614,-10.637,1.1948,0.2934,-1.1689,-3.4611
2896.0,3.5614,-10.637,1.1948,0.2934,-1.1689,-3.4611
2901.0,3.5614,-10.637,1.1948,0.2934,-1.1689,-3.4611
2906.0,4.0691,-9.9554,1.6781,0.2165,-2.1134,-3.0109
2911.0,4.0691,-9.9554,1.6781,0.2165,-2.1134,-3.0109
2916.0,4.0691,-9.9554,1.6781,0.2165,-2.1134,-3.0109
2922.0,4.0691,-9.9554,1.6781,0.2165,-2.1134,-3.0109
2926.0,4.0691,-9.9554,1.6781,0.2165,-2.1134,-3.0109
2931.0,4.0691,-9.9554,1.6781,0.2165,-2.1134,-3.0109
2936.0,3.9206,-10.0984,1.9293,0.087,-1.4646,-2.7458
2941.0,3.9206,-10.0984,1.9293,0.087,-1.4646,-2.7458
2946.0,3.9206,-10.0984,1.9293,0.087,-1.4646,-2.7458
2951.0,3.9206,-10.0984,1.9293,0.087,-1.4646,-2.7458
2956.0,3.9206,-10.0984,1.9293,0.087,-1.4646,-2.7458
2961.0,3.5566,-10.9659,1.6781,0.087,-1.4646,-2.7458
2966.0,3.5566,-10.9659,1.6781,0.1572,0.2837,-2.6553
2971.0,3.5566,-10.9659,1.6781,0.1572,0.2837,-2.6553
2976.0,3.5566,-10.9659,1.6781,0.1572,0.2837,-2.6553
2981.0,3.5566,-10.9659,1.6781,0.1572,0.2837,-2.6553
2986.0,2.4503,-11.1471,-2.1652,0.1572,0.2837,-2.6553
2991.0,2.4503,-11.1471,-2.1652,0.1572,0.2837,-2.6553
2996.0,2.4503,-11.1471,-2.1652,0.1572,0.2837,-2.6553
3002.0,2.4503,-11.1471,-2.1652,0.2171,1.1084,-3.0268
3006.0,2.4503,-11.1471,-2.1652,0.2171,1.1084,-3.0268
3011.0,2.4503,-11.1471,-2.1652,0.2171,1.1084,-3.0268
3016.0,2.4503,-11.1471,-2.1652,0.2171,1.1084,-3.0268
3021.0,2.3114,-10.7896,-4.44,0.2171,1.1084,-3.0268
3026.0,2.3114,-10.7896,-4.44,0.2171,1.1084,-3.0268
3031.0,2.3114,-10.7896,-4.44,0.2995,-1.1732,-2.9162
3036.0,2.3114,-10.7896,-4.44,0.2995,-1.1732,-2.9162
3041.0,2.3114,-10.7896,-4.44,0.2995,-1.1732,-2.9162
3046.0,1.9331,-8.921,-0.4781,0.2995,-1.1732,-2.9162
3052.0,1.9331,-8.921,-0.4781,0.2995,-1.1732,-2.9162
3056.0,1.9331,-8.921,-0.4781,0.2995,-1.1732,-2.9162
3061.0,1.9331,-8.921,-0.4781,0.2995,-1.1732,-2.9162
3067.0,1.9331,-8.921,-0.4781,0.4993,-1.1763,-1.0909
3071.0,1.9331,-8.921,-0.4781,0.4993,-1.1763,-1.0909
3077.0,1.0088,-7.8341,-1.2459,0.4993,-1.1763,-1.0909
3081.0,1.0088,-7.8341,-1.2459,0.4993,-1.1763,-1.0909
3087.0,1.0088,-7.8341,-1.2459,0.4993,-1.1763,-1.0909
3093.0,1.0088,-7.8341,-1.2459,0.6526,-0.8403,-0.8398
3097.0,1.0088,-7.8341,-1.2459,0.6526,-0.8403,-0.8398
3101.0,2.4982,-7.8294,0.3844,0.6526,-0.8403,-0.8398
3107.0,2.4982,-7.8294,0.3844,0.6526,-0.8403,-0.8398
3111.0,2.4982,-7.8294,0.3844,0.6526,-0.8403,-0.8398
3116.0,2.4982,-7.8294,0.3844,0.6526,-0.8403,-0.8398
3121.0,2.4982,-7.8294,0.3844,0.6526,-0.8403,-0.8398
3126.0,2.4982,-7.8294,0.3844,0.7449,0.3075,-1.0494
3131.0,4.0547,-5.2982,-0.1322,0.7449,0.3075,-1.0494
3136.0,4.0547,-5.2982,-0.1322,0.7449,0.3075,-1.0494
3141.0,4.0547,-5.2982,-0.1322,0.7449,0.3075,-1.0494
3146.0,4.0547,-5.2982,-0.1322,0.7449,0.3075,-1.0494
3151.0,4.0547,-5.2982,-0.1322,0.7449,0.3075,-1.0494
3156.0,3.3603,-2.6288,-0.4829,0.4608,0.5561,-1.1764
3162.0,3.3603,-2.6288,-0.4829,0.4608,0.5561,-1.1764
3166.0,3.3603,-2.6288,-0.4829,0.4608,0.5561,-1.1764
3171.0,3.3603,-2.6288,-0.4829,0.4608,0.5561,-1.1764
3177.0,3.3603,-2.6288,-0.4829,0.4608,0.5561,-1.1764
3181.0,3.3028,-1.9471,-1.6724,0.4608,0.5561,-1.1764
3186.0,3.3028,-1.9471,-1.6724,0.0851,0.536,0.0642
3191.0,3.3028,-1.9471,-1.6724,0.0851,0.536,0.0642
3196.0,3.3028,-1.9471,-1.6724,0.0851,0.536,0.0642
3202.0,3.3028,-1.9471,-1.6724,0.0851,0.536,0.0642
3206.0,3.3028,-1.9471,-1.6724,0.0851,0.536,0.0642
3211.0,2.6227,-2.9958,-2.2411,0.0851,0.536,0.0642
3216.0,2.6227,-2.9958,-2.2411,-0.4219,1.1902,1.7985
3221.0,2.6227,-2.9958,-2.2411,-0.4219,1.1902,1.7985
3226.0,2.6227,-2.9958,-2.2411,-0.4219,1.1902,1.7985
3232.0,2.6227,-2.9958,-2.2411,-0.4219,1.1902,1.7985
3237.0,1.0184,-6.1276,-4.6532,-0.4219,1.1902,1.7985
3241.0,1.0184,-6.1276,-4.6532,-0.4219,1.1902,1.7985
3246.0,1.0184,-6.1276,-4.6532,-0.4219,1.1902,1.7985
3252.0,1.0184,-6.1276,-4.6532,-0.4219,1.1902,1.7985
3257.0,1.0184,-6.1276,-4.6532,-0.3144,2.2287,2.749
3262.0,1.0184,-6.1276,-4.6532,-0.3144,2.2287,2.749
3266.0,-0.519,-11.1709,-11.5201,-0.3144,2.2287,2.749
3271.0,-0.519,-11.1709,-11.5201,-0.3144,2.2287,2.749
3276.0,-0.519,-11.1709,-11.5201,-0.3144,2.2287,2.749
3281.0,-0.519,-11.1709,-11.5201,-0.3144,2.2287,2.749
3286.0,-0.519,-11.1709,-11.5201,0.4565,2.0235,0.0966
3291.0,0.1803,-22.8305,-24.2113,0.4565,2.0235,0.0966
3296.0,0.1803,-22.8305,-24.2113,0.4565,2.0235,0.0966
3301.0,0.1803,-22.8305,-24.2113,0.4565,2.0235,0.0966
3306.0,0.1803,-22.8305,-24.2113,0.4565,2.0235,0.0966
3312.0,0.1803,-22.8305,-24.2113,0.4565,2.0235,0.0966
3316.0,0.1803,-22.8305,-24.2113,0.4565,2.0235,0.0966
3321.0,0.7693,-15.3943,-14.7664,1.3319,1.6716,-2.937
3326.0,0.7693,-15.3943,-14.7664,1.3319,1.6716,-2.937
3332.0,0.7693,-15.3943,-14.7664,1.3319,1.6716,-2.937
3336.0,0.7693,-15.3943,-14.7664,1.3319,1.6716,-2.937
3341.0,0.7693,-15.3943,-14.7664,1.3319,1.6716,-2.937
3346.0,4.7108,-6.1467,-10.2738,1.3319,1.6716,-2.937
3351.0,4.7108,-6.1467,-10.2738,1.0143,-1.9435,-0.4391
3356.0,4.7108,-6.1467,-10.2738,1.0143,-1.9435,-0.4391
3361.0,4.7108,-6.1467,-10.2738,1.0143,-1.9435,-0.4391
3366.0,4.7108,-6.1467,-10.2738,1.0143,-1.9435,-0.4391
3371.0,4.7108,-6.1467,-10.2738,1.0143,-1.9435,-0.4391
3379.0,5.8842,-6.6043,4.3604,1.0143,-1.9435,-0.4391
3381.0,5.8842,-6.6043,4.3604,1.0143,-1.9435,-0.4391
3386.0,5.8842,-6.6043,4.3604,-0.4708,-3.8067,2.7551
3391.0,5.8842,-6.6043,4.3604,-0.4708,-3.8067,2.7551
3396.0,5.8842,-6.6043,4.3604,-0.4708,-3.8067,2.7551
3401.0,5.8842,-6.6043,4.3604,-0.4708,-3.8067,2.7551
3406.0,6.7319,-7.3527,9.8814,-0.4708,-3.8067,2.7551
3411.0,6.7319,-7.3527,9.8814,-0.4708,-3.8067,2.7551
3416.0,6.7319,-7.3527,9.8814,-1.1641,0.7095,2.1662
3421.0,6.7319,-7.3527,9.8814,-1.1641,0.7095,2.1662
3427.0,6.7319,-7.3527,9.8814,-1.1641,0.7095,2.1662
3431.0,9.0595,-5.9608,-18.8799,-1.1641,0.7095,2.1662
3436.0,9.0595,-5.9608,-18.8799,-1.1641,0.7095,2.1662
3441.0,9.0595,-5.9608,-18.8799,-1.1641,0.7095,2.1662
3446.0,9.0595,-5.9608,-18.8799,-0.8238,0.3472,-3.874
3451.0,9.0595,-5.9608,-18.8799,-0.8238,0.3472,-3.874
3456.0,8.1878,-4.6261,3.8676,-0.8238,0.3472,-3.874
3461.0,8.1878,-4.6261,3.8676,-0.8238,0.3472,-3.874
3467.0,8.1878,-4.6261,3.8676,-0.8238,0.3472,-3.874
3471.0,8.1878,-4.6261,3.8676,-0.8238,0.3472,-3.874
3476.0,8.1878,-4.6261,3.8676,-1.1073,2.3942,1.0392
3481.0,8.2405,-9.4167,1.5075,-1.1073,2.3942,1.0392
3486.0,8.2405,-9.4167,1.5075,-1.1073,2.3942,1.0392
3491.0,8.2405,-9.4167,1.5075,-1.1073,2.3942,1.0392
3496.0,8.2405,-9.4167,1.5075,-1.1073,2.3942,1.0392
3501.0,8.2405,-9.4167,1.5075,-1.1073,2.3942,1.0392
3506.0,8.2405,-9.4167,1.5075,-1.4457,-1.23,2.9769
3511.0,4.7396,-12.9441,2.4933,-1.4457,-1.23,2.9769
3516.0,4.7396,-12.9441,2.4933,-1.4457,-1.23,2.9769
3521.0,4.7396,-12.9441,2.4933,-1.4457,-1.23,2.9769
3526.0,4.7396,-12.9441,2.4933,-1.4457,-1.23,2.9769
3531.0,4.7396,-12.9441,2.4933,-1.4457,-1.23,2.9769
3536.0,2.5749,-11.4188,1.9862,-0.4732,-1.3846,2.5505
3541.0,2.5749,-11.4188,1.9862,-0.4732,-1.3846,2.5505
3547.0,2.5749,-11.4188,1.9862,-0.4732,-1.3846,2.5505
3551.0,2.5749,-11.4188,1.9862,-0.4732,-1.3846,2.5505
3556.0,2.5749,-11.4188,1.9862,-0.4732,-1.3846,2.5505
3561.0,2.5749,-11.4188,1.9862,-0.4732,-1.3846,2.5505
3566.0,-0.7632,-6.4565,1.1095,-1.3241,-2.0284,0.9928
3571.0,-0.7632,-6.4565,1.1095,-1.3241,-2.0284,0.9928
3576.0,-0.7632,-6.4565,1.1095,-1.3241,-2.0284,0.9928
3581.0,-0.7632,-6.4565,1.1095,-1.3241,-2.0284,0.9928
3587.0,-0.7632,-6.4565,1.1095,-1.3241,-2.0284,0.9928
3591.0,-1.4481,-8.43,2.9056,-1.3241,-2.0284,0.9928
3596.0,-1.4481,-8.43,2.9056,-1.326,2.9208,2.4155
3601.0,-1.4481,-8.43,2.9056,-1.326,2.9208,2.4155
3606.0,-1.4481,-8.43,2.9056,-1.326,2.9208,2.4155
3611.0,-1.4481,-8.43,2.9056,-1.326,2.9208,2.4155
3616.0,0.7214,-11.3377,-8.5061,-1.326,2.9208,2.4155
3621.0,0.7214,-11.3377,-8.5061,-1.326,2.9208,2.4155
3626.0,0.7214,-11.3377,-8.5061,-1.326,2.9208,2.4155
3631.0,0.7214,-11.3377,-8.5061,0.0589,2.0094,1.3348
3636.0,0.7214,-11.3377,-8.5061,0.0589,2.0094,1.3348
3641.0,0.7214,-11.3377,-8.5061,0.0589,2.0094,1.3348
3646.0,3.1687,-9.6122,-3.6438,0.0589,2.0094,1.3348
3651.0,3.1687,-9.6122,-3.6438,0.0589,2.0094,1.3348
3656.0,3.1687,-9.6122,-3.6438,0.0589,2.0094,1.3348
3661.0,3.1687,-9.6122,-3.6438,0.426,0.5641,0.9549
3666.0,3.1687,-9.6122,-3.6438,0.426,0.5641,0.9549
3672.0,1.1956,-9.0449,0.6924,0.426,0.5641,0.9549
3676.0,1.1956,-9.0449,0.6924,0.426,0.5641,0.9549
3681.0,1.1956,-9.0449,0.6924,0.426,0.5641,0.9549
3686.0,1.1956,-9.0449,0.6924,0.426,0.5641,0.9549
3691.0,1.1956,-9.0449,0.6924,0.426,0.5641,0.9549
3696.0,1.6458,-7.4385,0.9199,0.6227,0.3668,1.2444
3701.0,1.6458,-7.4385,0.9199,0.6227,0.3668,1.2444
3707.0,1.6458,-7.4385,0.9199,0.6227,0.3668,1.2444
3711.0,1.6458,-7.4385,0.9199,0.6227,0.3668,1.2444
3716.0,1.6458,-7.4385,0.9199,0.6227,0.3668,1.2444
3722.0,1.6458,-7.4385,0.9199,0.6227,0.3668,1.2444
3726.0,2.5988,-7.5481,0.3417,0.6367,0.6221,1.6568
3732.0,2.5988,-7.5481,0.3417,0.6367,0.6221,1.6568
3737.0,2.5988,-7.5481,0.3417,0.6367,0.6221,1.6568
3741.0,2.5988,-7.5481,0.3417,0.6367,0.6221,1.6568
3746.0,2.5988,-7.5481,0.3417,0.6367,0.6221,1.6568
3751.0,2.5988,-7.5481,0.3417,0.6367,0.6221,1.6568
3756.0,3.8392,-9.0449,0.9246,0.5806,0.8695,1.7936
3761.0,3.8392,-9.0449,0.9246,0.5806,0.8695,1.7936
3767.0,3.8392,-9.0449,0.9246,0.5806,0.8695,1.7936
3772.0,3.8392,-9.0449,0.9246,0.5806,0.8695,1.7936
3776.0,3.8392,-9.0449,0.9246,0.5806,0.8695,1.7936
3781.0,5.1275,-10.0555,0.8962,0.5806,0.8695,1.7936
3786.0,5.1275,-10.0555,0.8962,0.0692,1.415,2.0465
3791.0,5.1275,-10.0555,0.8962,0.0692,1.415,2.0465
3796.0,5.1275,-10.0555,0.8962,0.0692,1.415,2.0465
3801.0,5.1275,-10.0555,0.8962,0.0692,1.415,2.0465
3806.0,6.8899,-10.6275,-2.4496,0.0692,1.415,2.0465
3811.0,6.8899,-10.6275,-2.4496,0.0692,1.415,2.0465
3816.0,6.8899,-10.6275,-2.4496,-0.4115,1.6624,2.0062
3821.0,6.8899,-10.6275,-2.4496,-0.4115,1.6624,2.0062
3826.0,6.8899,-10.6275,-2.4496,-0.4115,1.6624,2.0062
3831.0,6.8899,-10.6275,-2.4496,-0.4115,1.6624,2.0062
3836.0,7.5317,-9.6598,-7.9706,-0.4115,1.6624,2.0062
3841.0,7.5317,-9.6598,-7.9706,-0.4115,1.6624,2.0062
3846.0,7.5317,-9.6598,-7.9706,-1.0334,-0.0572,-0.3078
3851.0,7.5317,-9.6598,-7.9706,-1.0334,-0.0572,-0.3078
3856.0,7.5317,-9.6598,-7.9706,-1.0334,-0.0572,-0.3078
3861.0,1.7128,-11.8811,2.1994,-1.0334,-0.0572,-0.3078
3867.0,1.7128,-11.8811,2.1994,-1.0334,-0.0572,-0.3078
3871.0,1.7128,-11.8811,2.1994,-1.0334,-0.0572,-0.3078
3876.0,1.7128,-11.8811,2.1994,-1.0334,-0.0572,-0.3078
3881.0,1.7128,-11.8811,2.1994,-0.7322,0.864,-0.1673
3886.0,1.7128,-11.8811,2.1994,-0.7322,0.864,-0.1673
3891.0,0.3958,-13.0156,0.0811,-0.7322,0.864,-0.1673
3896.0,0.3958,-13.0156,0.0811,-0.7322,0.864,-0.1673
3901.0,0.3958,-13.0156,0.0811,-0.7322,0.864,-0.1673
3906.0,0.3958,-13.0156,0.0811,-0.7322,0.864,-0.1673
3911.0,0.3958,-13.0156,0.0811,-0.0419,-0.1677,0.4955
3916.0,0.8076,-10.6132,-2.497,-0.0419,-0.1677,0.4955
3921.0,0.8076,-10.6132,-2.497,-0.0419,-0.1677,0.4955
3926.0,0.8076,-10.6132,-2.497,-0.0419,-0.1677,0.4955
3931.0,0.8076,-10.6132,-2.497,-0.0419,-0.1677,0.4955
3936.0,0.8076,-10.6132,-2.497,-0.0419,-0.1677,0.4955
3941.0,0.8076,-10.6132,-2.497,0.1499,-0.5782,0.1229
3946.0,1.8948,-10.8468,1.0099,0.1499,-0.5782,0.1229
3951.0,1.8948,-10.8468,1.0099,0.1499,-0.5782,0.1229
3956.0,1.8948,-10.8468,1.0099,0.1499,-0.5782,0.1229
3962.0,1.8948,-10.8468,1.0099,0.1499,-0.5782,0.1229
3967.0,1.8948,-10.8468,1.0099,0.1499,-0.5782,0.1229
3971.0,2.6611,-11.6905,1.2327,0.1499,-0.5782,0.1229
3976.0,2.6611,-11.6905,1.2327,0.2318,0.0607,-0.4782
3981.0,2.6611,-11.6905,1.2327,0.2318,0.0607,-0.4782
3986.0,2.6611,-11.6905,1.2327,0.2318,0.0607,-0.4782
3991.0,2.6611,-11.6905,1.2327,0.2318,0.0607,-0.4782
3997.0,4.4522,-10.7991,-4.4826,0.2318,0.0607,-0.4782
4001.0,4.4522,-10.7991,-4.4826,0.2318,0.0607,-0.4782
4006.0,4.4522,-10.7991,-4.4826,-0.0871,-1.5929,-2.3744
4012.0,4.4522,-10.7991,-4.4826,-0.0871,-1.5929,-2.3744
4017.0,4.4522,-10.7991,-4.4826,-0.0871,-1.5929,-2.3744
4021.0,4.4522,-10.7991,-4.4826,-0.0871,-1.5929,-2.3744
4026.0,3.0346,-13.416,1.0099,-0.0871,-1.5929,-2.3744
4032.0,3.0346,-13.416,1.0099,-0.0871,-1.5929,-2.3744
4036.0,3.0346,-13.416,1.0099,0.5757,-2.1225,-3.3267
4041.0,3.0346,-13.416,1.0099,0.5757,-2.1225,-3.3267
4046.0,3.0346,-13.416,1.0099,0.5757,-2.1225,-3.3267
4052.0,4.8354,-15.0701,2.697,0.5757,-2.1225,-3.3267
4056.0,4.8354,-15.0701,2.697,0.5757,-2.1225,-3.3267
4061.0,4.8354,-15.0701,2.697,0.5757,-2.1225,-3.3267
4066.0,4.8354,-15.0701,2.697,1.9178,-1.3693,-2.86
4071.0,4.8354,-15.0701,2.697,1.9178,-1.3693,-2.86
4077.0,7.0097,-12.3245,1.3796,1.9178,-1.3693,-2.86
4081.0,7.0097,-12.3245,1.3796,1.9178,-1.3693,-2.86
4086.0,7.0097,-12.3245,1.3796,1.9178,-1.3693,-2.86
4091.0,7.0097,-12.3245,1.3796,1.9178,-1.3693,-2.86
4096.0,7.0097,-12.3245,1.3796,1.1786,-1.5562,-2.0146
4101.0,7.0097,-12.3245,1.3796,1.1786,-1.5562,-2.0146
4106.0,7.8334,-11.3568,-0.6061,1.1786,-1.5562,-2.0146
4112.0,7.8334,-11.3568,-0.6061,1.1786,-1.5562,-2.0146
4116.0,7.8334,-11.3568,-0.6061,1.1786,-1.5562,-2.0146
4121.0,7.8334,-11.3568,-0.6061,1.1786,-1.5562,-2.0146
4126.0,7.8334,-11.3568,-0.6061,0.131,-0.3577,-2.4477
4131.0,6.3535,-12.9632,-2.3027,0.131,-0.3577,-2.4477
4136.0,6.3535,-12.9632,-2.3027,0.131,-0.3577,-2.4477
4141.0,6.3535,-12.9632,-2.3027,0.131,-0.3577,-2.4477
4146.0,6.3535,-12.9632,-2.3027,0.131,-0.3577,-2.4477
4151.0,6.3535,-12.9632,-2.3027,0.131,-0.3577,-2.4477
4156.0,4.3995,-10.4988,-2.5775,0.131,-0.3577,-2.4477
4161.0,4.3995,-10.4988,-2.5775,0.2531,-0.9533,-3.2467
4166.0,4.3995,-10.4988,-2.5775,0.2531,-0.9533,-3.2467
4171.0,4.3995,-10.4988,-2.5775,0.2531,-0.9533,-3.2467
4176.0,4.3995,-10.4988,-2.5775,0.2531,-0.9533,-3.2467
4181.0,4.3995,-10.4988,-2.5775,0.2531,-0.9533,-3.2467
4186.0,3.0634,-6.8855,-0.6819,0.2531,-0.9533,-3.2467
4191.0,3.0634,-6.8855,-0.6819,0.17,-1.2979,-3.1337
4196.0,3.0634,-6.8855,-0.6819,0.17,-1.2979,-3.1337
4202.0,3.0634,-6.8855,-0.6819,0.17,-1.2979,-3.1337
4207.0,3.0634,-6.8855,-0.6819,0.17,-1.2979,-3.1337
4211.0,1.9139,-6.4708,1.318,0.17,-1.2979,-3.1337
4216.0,1.9139,-6.4708,1.318,0.17,-1.2979,-3.1337
4221.0,1.9139,-6.4708,1.318,0.1627,-0.7914,-2.0714
4226.0,1.9139,-6.4708,1.318,0.1627,-0.7914,-2.0714
4231.0,1.9139,-6.4708,1.318,0.1627,-0.7914,-2.0714
4236.0,1.9139,-6.4708,1.318,0.1627,-0.7914,-2.0714
4241.0,1.1285,-6.8522,2.062,0.1627,-0.7914,-2.0714
4246.0,1.1285,-6.8522,2.062,0.1627,-0.7914,-2.0714
4251.0,1.1285,-6.8522,2.062,0.1627,-0.7914,-2.0714
4256.0,1.1285,-6.8522,2.062,0.6563,0.2788,-1.3463
4261.0,1.1285,-6.8522,2.062,0.6563,0.2788,-1.3463
4266.0,0.3,-9.0735,0.6735,0.6563,0.2788,-1.3463
4272.0,0.3,-9.0735,0.6735,0.6563,0.2788,-1.3463
4276.0,0.3,-9.0735,0.6735,0.6563,0.2788,-1.3463
4281.0,0.3,-9.0735,0.6735,0.6563,0.2788,-1.3463
4286.0,0.3,-9.0735,0.6735,1.2055,0.6747,-1.7225
4291.0,0.3,-9.0735,0.6735,1.2055,0.6747,-1.7225
4296.0,1.3776,-8.797,-0.1132,1.2055,0.6747,-1.7225
4302.0,1.3776,-8.797,-0.1132,1.2055,0.6747,-1.7225
4306.0,1.3776,-8.797,-0.1132,1.2055,0.6747,-1.7225
4311.0,1.3776,-8.797,-0.1132,1.2055,0.6747,-1.7225
4316.0,1.3776,-8.797,-0.1132,0.9153,1.3344,-1.7042
4321.0,2.7904,-4.9168,-0.0658,0.9153,1.3344,-1.7042
4327.0,2.7904,-4.9168,-0.0658,0.9153,1.3344,-1.7042
4332.0,2.7904,-4.9168,-0.0658,0.9153,1.3344,-1.7042
4336.0,2.7904,-4.9168,-0.0658,0.9153,1.3344,-1.7042
4341.0,2.7904,-4.9168,-0.0658,0.9153,1.3344,-1.7042
4346.0,2.7904,-4.9168,-0.0658,0.9153,1.3344,-1.7042
4352.0,3.049,-2.8337,-0.6061,0.605,1.4046,-0.948
4356.0,3.049,-2.8337,-0.6061,0.605,1.4046,-0.948
4361.0,3.049,-2.8337,-0.6061,0.605,1.4046,-0.948
4366.0,3.049,-2.8337,-0.6061,0.605,1.4046,-0.948
4371.0,3.049,-2.8337,-0.6061,0.605,1.4046,-0.948
4376.0,2.8383,-2.6526,-1.3596,0.605,1.4046,-0.948
4381.0,2.8383,-2.6526,-1.3596,0.4004,1.4541,0.0532
4386.0,2.8383,-2.6526,-1.3596,0.4004,1.4541,0.0532
4391.0,2.8383,-2.6526,-1.3596,0.4004,1.4541,0.0532
4396.0,2.8383,-2.6526,-1.3596,0.4004,1.4541,0.0532
4401.0,3.3699,-3.8539,-2.1178,0.4004,1.4541,0.0532
4406.0,3.3699,-3.8539,-2.1178,0.4004,1.4541,0.0532
4411.0,3.3699,-3.8539,-2.1178,0.1633,1.5213,0.9701
4416.0,3.3699,-3.8539,-2.1178,0.1633,1.5213,0.9701
4421.0,3.3699,-3.8539,-2.1178,0.1633,1.5213,0.9701
4426.0,3.3699,-3.8539,-2.1178,0.1633,1.5213,0.9701
4431.0,4.3229,-5.5127,-4.1225,0.1633,1.5213,0.9701
4436.0,4.3229,-5.5127,-4.1225,0.1682,2.5244,1.7325
4441.0,4.3229,-5.5127,-4.1225,0.1682,2.5244,1.7325
4446.0,4.3229,-5.5127,-4.1225,0.1682,2.5244,1.7325
4452.0,4.3229,-5.5127,-4.1225,0.1682,2.5244,1.7325
4456.0,4.0068,-6.7425,-11.8566,0.1682,2.5244,1.7325
4461.0,4.0068,-6.7425,-11.8566,0.1682,2.5244,1.7325
4466.0,4.0068,-6.7425,-11.8566,0.1682,2.5244,1.7325
4471.0,4.0068,-6.7425,-11.8566,0.2574,1.8878,1.5541
4476.0,4.0068,-6.7425,-11.8566,0.2574,1.8878,1.5541
4481.0,0.3431,-9.288,-18.2212,0.2574,1.8878,1.5541
4486.0,0.3431,-9.288,-18.2212,0.2574,1.8878,1.5541
4491.0,0.3431,-9.288,-18.2212,0.2574,1.8878,1.5541
4496.0,0.3431,-9.288,-18.2212,0.2574,1.8878,1.5541
4501.0,0.3431,-9.288,-18.2212,0.828,0.9581,-0.0433
4506.0,0.3431,-9.288,-18.2212,0.828,0.9581,-0.0433
4511.0,1.2961,-19.0218,-6.1887,0.828,0.9581,-0.0433
4516.0,1.2961,-19.0218,-6.1887,0.828,0.9581,-0.0433
4521.0,1.2961,-19.0218,-6.1887,0.828,0.9581,-0.0433
4526.0,1.2961,-19.0218,-6.1887,0.828,0.9581,-0.0433
4531.0,1.2961,-19.0218,-6.1887,0.266,1.8494,-1.8875
4536.0,10.2089,-12.4913,-9.5487,0.266,1.8494,-1.8875
4542.0,10.2089,-12.4913,-9.5487,0.266,1.8494,-1.8875
4546.0,10.2089,-12.4913,-9.5487,0.266,1.8494,-1.8875
4551.0,10.2089,-12.4913,-9.5487,0.266,1.8494,-1.8875
4556.0,10.2089,-12.4913,-9.5487,0.266,1.8494,-1.8875
4561.0,10.2089,-12.4913,-9.5487,0.266,1.8494,-1.8875
4566.0,11.8372,-4.24,-17.7709,-1.2942,1.5244,-4.3273
4571.0,11.8372,-4.24,-17.7709,-1.2942,1.5244,-4.3273
4576.0,11.8372,-4.24,-17.7709,-1.2942,1.5244,-4.3273
4581.0,11.8372,-4.24,-17.7709,-1.2942,1.5244,-4.3273
4586.0,11.8372,-4.24,-17.7709,-1.2942,1.5244,-4.3273
4591.0,11.8372,-4.24,-17.7709,-1.2942,1.5244,-4.3273
4596.0,13.1064,-3.3343,-16.3777,-0.8434,-1.4249,-1.3793
4601.0,13.1064,-3.3343,-16.3777,-0.8434,-1.4249,-1.3793
4606.0,13.1064,-3.3343,-16.3777,-0.8434,-1.4249,-1.3793
4611.0,13.1064,-3.3343,-16.3777,-0.8434,-1.4249,-1.3793
4616.0,13.1064,-3.3343,-16.3777,-0.8434,-1.4249,-1.3793
4621.0,13.1064,-3.3343,-16.3777,-0.8434,-1.4249,-1.3793
4626.0,7.206,-12.4913,8.7204,-0.8434,-1.4249,-1.3793
4631.0,7.206,-12.4913,8.7204,-0.3302,-3.7914,3.0532
4636.0,7.206,-12.4913,8.7204,-0.3302,-3.7914,3.0532
4641.0,7.206,-12.4913,8.7204,-0.3302,-3.7914,3.0532
4647.0,7.206,-12.4913,8.7204,-0.3302,-3.7914,3.0532
4651.0,6.4398,-6.7139,4.5358,-0.3302,-3.7914,3.0532
4656.0,6.4398,-6.7139,4.5358,-0.3302,-3.7914,3.0532
4661.0,6.4398,-6.7139,4.5358,-0.9881,-0.0291,1.0697
4666.0,6.4398,-6.7139,4.5358,-0.9881,-0.0291,1.0697
4671.0,6.4398,-6.7139,4.5358,-0.9881,-0.0291,1.0697
4676.0,3.1304,-4.6451,1.6924,-0.9881,-0.0291,1.0697
4682.0,3.1304,-4.6451,1.6924,-0.9881,-0.0291,1.0697
4686.0,3.1304,-4.6451,1.6924,-0.9881,-0.0291,1.0697
4692.0,3.1304,-4.6451,1.6924,-1.2294,0.3747,0.3892
4697.0,3.1304,-4.6451,1.6924,-1.2294,0.3747,0.3892
4701.0,3.6333,-7.5624,2.9814,-1.2294,0.3747,0.3892
4706.0,3.6333,-7.5624,2.9814,-1.2294,0.3747,0.3892
4711.0,3.6333,-7.5624,2.9814,-1.2294,0.3747,0.3892
4716.0,3.6333,-7.5624,2.9814,-1.2294,0.3747,0.3892
4721.0,3.6333,-7.5624,2.9814,-1.0572,1.2403,-0.711
4726.0,3.6333,-7.5624,2.9814,-1.0572,1.2403,-0.711
4731.0,4.3325,-13.4256,5.4978,-1.0572,1.2403,-0.711
4736.0,4.3325,-13.4256,5.4978,-1.0572,1.2403,-0.711
4741.0,4.3325,-13.4256,5.4978,-1.0572,1.2403,-0.711
4746.0,4.3325,-13.4256,5.4978,-1.0572,1.2403,-0.711
4751.0,4.3325,-13.4256,5.4978,-0.552,2.9972,-0.9443
4756.0,2.3354,-13.6115,3.6259,-0.552,2.9972,-0.9443
4761.0,2.3354,-13.6115,3.6259,-0.552,2.9972,-0.9443
4766.0,2.3354,-13.6115,3.6259,-0.552,2.9972,-0.9443
4771.0,2.3354,-13.6115,3.6259,-0.552,2.9972,-0.9443
4776.0,2.3354,-13.6115,3.6259,-0.552,2.9972,-0.9443
4782.0,2.3354,-13.6115,3.6259,-0.3669,3.1407,0.3752
4787.0,0.276,-7.3622,3.0904,-0.3669,3.1407,0.3752
4791.0,0.276,-7.3622,3.0904,-0.3669,3.1407,0.3752
4796.0,0.276,-7.3622,3.0904,-0.3669,3.1407,0.3752
4802.0,0.276,-7.3622,3.0904,-0.3669,3.1407,0.3752
4806.0,0.276,-7.3622,3.0904,-0.3669,3.1407,0.3752
4811.0,1.186,-9.1736,-45.7693,-0.3669,3.1407,0.3752
4816.0,1.186,-9.1736,-45.7693,-0.8635,-2.442,4.3006
4821.0,1.186,-9.1736,-45.7693,-0.8635,-2.442,4.3006
4826.0,1.186,-9.1736,-45.7693,-0.8635,-2.442,4.3006
4831.0,1.186,-9.1736,-45.7693,-0.8635,-2.442,4.3006
4836.0,2.3162,-9.1116,0.0526,-0.8635,-2.442,4.3006
4841.0,2.3162,-9.1116,0.0526,-0.8635,-2.442,4.3006
4846.0,2.3162,-9.1116,0.0526,0.1707,-3.4805,3.2982
4851.0,2.3162,-9.1116,0.0526,0.1707,-3.4805,3.2982
4856.0,2.3162,-9.1116,0.0526,0.1707,-3.4805,3.2982
4861.0,2.3162,-9.1116,0.0526,0.1707,-3.4805,3.2982
4866.0,2.3785,-9.9983,0.7303,0.1707,-3.4805,3.2982
4871.0,2.3785,-9.9983,0.7303,0.1707,-3.4805,3.2982
4876.0,2.3785,-9.9983,0.7303,0.2684,1.8225,0.1314
4881.0,2.3785,-9.9983,0.7303,0.2684,1.8225,0.1314
4888.0,2.3785,-9.9983,0.7303,0.2684,1.8225,0.1314
4891.0,2.3785,-9.9983,0.7303,0.2684,1.8225,0.1314
4896.0,3.3507,-5.9941,-1.9235,0.2684,1.8225,0.1314
4901.0,3.3507,-5.9941,-1.9235,0.2684,1.8225,0.1314
4906.0,3.3507,-5.9941,-1.9235,-0.2868,4.66,-1.2907
4911.0,3.3507,-5.9941,-1.9235,-0.2868,4.66,-1.2907
4916.0,3.3507,-5.9941,-1.9235,-0.2868,4.66,-1.2907
4921.0,3.9398,-8.2488,-3.3216,-0.2868,4.66,-1.2907
4926.0,3.9398,-8.2488,-3.3216,-0.2868,4.66,-1.2907
4932.0,3.9398,-8.2488,-3.3216,-0.2868,4.66,-1.2907
4936.0,3.9398,-8.2488,-3.3216,0.2153,4.3411,-0.8655
4941.0,3.9398,-8.2488,-3.3216,0.2153,4.3411,-0.8655
4946.0,3.2501,-10.6799,-1.3928,0.2153,4.3411,-0.8655
4951.0,3.2501,-10.6799,-1.3928,0.2153,4.3411,-0.8655
4956.0,3.2501,-10.6799,-1.3928,0.2153,4.3411,-0.8655
4961.0,3.2501,-10.6799,-1.3928,0.2153,4.3411,-0.8655
4966.0,3.2501,-10.6799,-1.3928,0.2153,4.3411,-0.8655
4971.0,3.2501,-10.6799,-1.3928,0.5476,2.8995,-0.1447
4976.0,2.4886,-9.1307,-0.2838,0.5476,2.8995,-0.1447
4981.0,2.4886,-9.1307,-0.2838,0.5476,2.8995,-0.1447
4986.0,2.4886,-9.1307,-0.2838,0.5476,2.8995,-0.1447
4991.0,2.4886,-9.1307,-0.2838,0.5476,2.8995,-0.1447
4997.0,2.4886,-9.1307,-0.2838,0.5476,2.8995,-0.1447
5001.0,2.4886,-9.1307,-0.2838,0.7388,0.9337,0.4582
5006.0,2.4886,-9.1307,-0.2838,0.7388,0.9337,0.4582
5011.0,2.345,-7.429,0.4033,0.7388,0.9337,0.4582
5016.0,2.345,-7.429,0.4033,0.7388,0.9337,0.4582
5021.0,2.345,-7.429,0.4033,0.7388,0.9337,0.4582
5026.0,2.345,-7.429,0.4033,0.7388,0.9337,0.4582
5031.0,2.345,-7.429,0.4033,0.8134,-0.5648,1.297
5036.0,4.1266,-8.6779,1.2374,0.8134,-0.5648,1.297
5042.0,4.1266,-8.6779,1.2374,0.8134,-0.5648,1.297
5046.0,4.1266,-8.6779,1.2374,0.8134,-0.5648,1.297
5051.0,4.1266,-8.6779,1.2374,0.8134,-0.5648,1.297
5056.0,4.1266,-8.6779,1.2374,0.8134,-0.5648,1.297
5062.0,5.9369,-10.9135,1.9009,0.8983,-0.3992,2.2218
5066.0,5.9369,-10.9135,1.9009,0.8983,-0.3992,2.2218
5071.0,5.9369,-10.9135,1.9009,0.8983,-0.3992,2.2218
5076.0,5.9369,-10.9135,1.9009,0.8983,-0.3992,2.2218
5081.0,5.9369,-10.9135,1.9009,0.8983,-0.3992,2.2218
5086.0,7.2108,-11.1518,1.9246,0.8983,-0.3992,2.2218
5091.0,7.2108,-11.1518,1.9246,0.8983,-0.3992,2.2218
5096.0,7.2108,-11.1518,1.9246,0.5543,0.9257,2.3269
5101.0,7.2108,-11.1518,1.9246,0.5543,0.9257,2.3269
5106.0,7.2108,-11.1518,1.9246,0.5543,0.9257,2.3269
5111.0,7.2108,-11.1518,1.9246,0.5543,0.9257,2.3269
5116.0,7.139,-8.4586,-0.3976,0.5543,0.9257,2.3269
5122.0,7.139,-8.4586,-0.3976,-0.0406,3.4089,1.6537
5126.0,7.139,-8.4586,-0.3976,-0.0406,3.4089,1.6537
5131.0,7.139,-8.4586,-0.3976,-0.0406,3.4089,1.6537
5136.0,7.139,-8.4586,-0.3976,-0.0406,3.4089,1.6537
5141.0,1.5069,-10.8515,-12.4063,-0.0406,3.4089,1.6537
5146.0,1.5069,-10.8515,-12.4063,-0.0406,3.4089,1.6537
5151.0,1.5069,-10.8515,-12.4063,-0.0406,3.4089,1.6537
5156.0,1.5069,-10.8515,-12.4063,-0.745,1.3148,-1.5961
5161.0,1.5069,-10.8515,-12.4063,-0.745,1.3148,-1.5961
5166.0,1.5069,-10.8515,-12.4063,-0.745,1.3148,-1.5961
5171.0,2.6227,-13.764,1.3085,-0.745,1.3148,-1.5961
5176.0,2.6227,-13.764,1.3085,-0.745,1.3148,-1.5961
5181.0,2.6227,-13.764,1.3085,-0.745,1.3148,-1.5961
5186.0,2.6227,-13.764,1.3085,-0.2227,1.018,-0.0372
5191.0,2.6227,-13.764,1.3085,-0.2227,1.018,-0.0372
5197.0,1.6505,-14.2455,1.1426,-0.2227,1.018,-0.0372
5201.0,1.6505,-14.2455,1.1426,-0.2227,1.018,-0.0372
5206.0,1.6505,-14.2455,1.1426,-0.2227,1.018,-0.0372
5211.0,1.6505,-14.2455,1.1426,-0.2227,1.018,-0.0372
5216.0,1.6505,-14.2455,1.1426,0.3576,0.831,-0.4226
5221.0,1.6505,-14.2455,1.1426,0.3576,0.831,-0.4226
5226.0,1.9714,-15.8424,0.3891,0.3576,0.831,-0.4226
5231.0,1.9714,-15.8424,0.3891,0.3576,0.831,-0.4226
5236.0,1.9714,-15.8424,0.3891,0.3576,0.831,-0.4226
5241.0,1.9714,-15.8424,0.3891,0.3576,0.831,-0.4226
5246.0,1.9714,-15.8424,0.3891,0.3289,1.3277,-1.6615
5251.0,4.9072,-15.4419,0.683,0.3289,1.3277,-1.6615
5256.0,4.9072,-15.4419,0.683,0.3289,1.3277,-1.6615
5261.0,4.9072,-15.4419,0.683,0.3289,1.3277,-1.6615
5267.0,4.9072,-15.4419,0.683,0.3289,1.3277,-1.6615
5271.0,4.9072,-15.4419,0.683,0.3289,1.3277,-1.6615
5276.0,5.7022,-12.191,-2.696,0.3289,1.3277,-1.6615
5281.0,5.7022,-12.191,-2.696,-0.1537,0.6997,-3.0744
5286.0,5.7022,-12.191,-2.696,-0.1537,0.6997,-3.0744
5291.0,5.7022,-12.191,-2.696,-0.1537,0.6997,-3.0744
5296.0,5.7022,-12.191,-2.696,-0.1537,0.6997,-3.0744
5301.0,5.7022,-12.191,-2.696,-0.1537,0.6997,-3.0744
5306.0,6.2721,-12.7773,-2.3074,-0.1537,0.6997,-3.0744
5311.0,6.2721,-12.7773,-2.3074,-0.0962,0.0357,-4.7745
5316.0,6.2721,-12.7773,-2.3074,-0.0962,0.0357,-4.7745
5321.0,6.2721,-12.7773,-2.3074,-0.0962,0.0357,-4.7745
5326.0,6.2721,-12.7773,-2.3074,-0.0962,0.0357,-4.7745
5331.0,6.7463,-12.6486,-1.8003,-0.0962,0.0357,-4.7745
5336.0,6.7463,-12.6486,-1.8003,-0.0962,0.0357,-4.7745
5341.0,6.7463,-12.6486,-1.8003,-0.037,-1.2343,-4.835
5347.0,6.7463,-12.6486,-1.8003,-0.037,-1.2343,-4.835
5351.0,6.7463,-12.6486,-1.8003,-0.037,-1.2343,-4.835
5356.0,7.3018,-12.1243,1.0384,-0.037,-1.2343,-4.835
5362.0,7.3018,-12.1243,1.0384,-0.037,-1.2343,-4.835
5366.0,7.3018,-12.1243,1.0384,-0.037,-1.2343,-4.835
5372.0,7.3018,-12.1243,1.0384,-0.037,-1.2343,-4.835
5376.0,7.3018,-12.1243,1.0384,-0.073,-2.3436,-3.0353
5381.0,7.3018,-12.1243,1.0384,-0.073,-2.3436,-3.0353
5386.0,7.8813,-12.987,1.7255,-0.073,-2.3436,-3.0353
5391.0,7.8813,-12.987,1.7255,-0.073,-2.3436,-3.0353
5396.0,7.8813,-12.987,1.7255,-0.073,-2.3436,-3.0353
5401.0,7.8813,-12.987,1.7255,-0.073,-2.3436,-3.0353
5406.0,7.8813,-12.987,1.7255,0.1817,-2.8782,-1.4147
5412.0,6.7128,-14.0596,0.3417,0.1817,-2.8782,-1.4147
5417.0,6.7128,-14.0596,0.3417,0.1817,-2.8782,-1.4147
5423.0,6.7128,-14.0596,0.3417,0.1817,-2.8782,-1.4147
5426.0,6.7128,-14.0596,0.3417,0.1817,-2.8782,-1.4147
5432.0,6.7128,-14.0596,0.3417,0.1817,-2.8782,-1.4147
5436.0,2.8814,-14.3408,-5.184,1.1896,-2.153,-2.1905
5441.0,2.8814,-14.3408,-5.184,1.1896,-2.153,-2.1905
5447.0,2.8814,-14.3408,-5.184,1.1896,-2.153,-2.1905
5451.0,2.8814,-14.3408,-5.184,1.1896,-2.153,-2.1905
5456.0,2.8814,-14.3408,-5.184,1.1896,-2.153,-2.1905
5461.0,2.8814,-14.3408,-5.184,1.1896,-2.153,-2.1905
5466.0,2.6706,-9.7933,-1.9994,0.9703,-1.4719,-3.1874
5471.0,2.6706,-9.7933,-1.9994,0.9703,-1.4719,-3.1874
5476.0,2.6706,-9.7933,-1.9994,0.9703,-1.4719,-3.1874
5481.0,2.6706,-9.7933,-1.9994,0.9703,-1.4719,-3.1874
5486.0,2.6706,-9.7933,-1.9994,0.9703,-1.4719,-3.1874
5492.0,1.8421,-7.5529,0.01,0.9703,-1.4719,-3.1874
5496.0,1.8421,-7.5529,0.01,0.9703,-1.4719,-3.1874
5501.0,1.8421,-7.5529,0.01,1.0803,-0.4206,-2.8008
5507.0,1.8421,-7.5529,0.01,1.0803,-0.4206,-2.8008
5511.0,1.8421,-7.5529,0.01,1.0803,-0.4206,-2.8008
5516.0,1.9475,-6.1467,0.6118,1.0803,-0.4206,-2.8008
5521.0,1.9475,-6.1467,0.6118,1.0803,-0.4206,-2.8008
5526.0,1.9475,-6.1467,0.6118,1.0803,-0.4206,-2.8008
5531.0,1.9475,-6.1467,0.6118,1.2568,0.0705,-2.7604
5536.0,1.9475,-6.1467,0.6118,1.2568,0.0705,-2.7604
5541.0,1.9475,-6.1467,0.6118,1.2568,0.0705,-2.7604
5546.0,2.6132,-3.5821,1.6876,1.2568,0.0705,-2.7604
5551.0,2.6132,-3.5821,1.6876,1.2568,0.0705,-2.7604
5556.0,2.6132,-3.5821,1.6876,1.2568,0.0705,-2.7604
5561.0,2.6132,-3.5821,1.6876,1.0174,0.8646,-3.7287
5567.0,2.6132,-3.5821,1.6876,1.0174,0.8646,-3.7287
5572.0,2.6132,-3.5821,1.6876,1.0174,0.8646,-3.7287
5576.0,2.2683,-2.1807,1.6639,1.0174,0.8646,-3.7287
5582.0,2.2683,-2.1807,1.6639,1.0174,0.8646,-3.7287
5587.0,2.2683,-2.1807,1.6639,1.0827,1.4902,-3.9266
5591.0,2.2683,-2.1807,1.6639,1.0827,1.4902,-3.9266
5596.0,2.2683,-2.1807,1.6639,1.0827,1.4902,-3.9266
5601.0,2.2683,-2.1807,1.6639,1.0827,1.4902,-3.9266
5606.0,1.6505,-0.1119,1.1616,1.0827,1.4902,-3.9266
5611.0,1.6505,-0.1119,1.1616,1.0827,1.4902,-3.9266
5616.0,1.6505,-0.1119,1.1616,1.0827,1.4902,-3.9266
5621.0,1.6505,-0.1119,1.1616,1.3778,1.4596,-1.8081
5626.0,1.6505,-0.1119,1.1616,1.3778,1.4596,-1.8081
5631.0,0.8891,1.075,-1.5965,1.3778,1.4596,-1.8081
5637.0,0.8891,1.075,-1.5965,1.3778,1.4596,-1.8081
5641.0,0.8891,1.075,-1.5965,1.3778,1.4596,-1.8081
5646.0,0.8891,1.075,-1.5965,1.3778,1.4596,-1.8081
5651.0,0.8891,1.075,-1.5965,0.7571,1.1194,0.4723
5656.0,0.9369,-0.8746,-2.4401,0.7571,1.1194,0.4723
5661.0,0.9369,-0.8746,-2.4401,0.7571,1.1194,0.4723
5666.0,0.9369,-0.8746,-2.4401,0.7571,1.1194,0.4723
5671.0,0.9369,-0.8746,-2.4401,0.7571,1.1194,0.4723
5677.0,0.9369,-0.8746,-2.4401,0.7571,1.1194,0.4723
5682.0,0.6544,-5.0408,-4.8665,0.6227,2.1725,1.4454
5686.0,0.6544,-5.0408,-4.8665,0.6227,2.1725,1.4454
5691.0,0.6544,-5.0408,-4.8665,0.6227,2.1725,1.4454
5696.0,0.6544,-5.0408,-4.8665,0.6227,2.1725,1.4454
5701.0,0.6544,-5.0408,-4.8665,0.6227,2.1725,1.4454
5706.0,0.6544,-5.0408,-4.8665,0.6227,2.1725,1.4454
5711.0,0.6544,-5.0408,-4.8665,0.6227,2.1725,1.4454
5716.0,0.5299,-10.6656,-12.1173,0.6741,3.1927,1.4191
5721.0,0.5299,-10.6656,-12.1173,0.6741,3.1927,1.4191
5726.0,0.5299,-10.6656,-12.1173,0.6741,3.1927,1.4191
5731.0,0.5299,-10.6656,-12.1173,0.6741,3.1927,1.4191
5736.0,0.5299,-10.6656,-12.1173,0.6741,3.1927,1.4191
5741.0,0.5299,-10.6656,-12.1173,0.6741,3.1927,1.4191
5747.0,5.4149,-9.9792,-12.0793,0.7296,0.2025,1.3996
5752.0,5.4149,-9.9792,-12.0793,0.7296,0.2025,1.3996
5756.0,5.4149,-9.9792,-12.0793,0.7296,0.2025,1.3996
5761.0,5.4149,-9.9792,-12.0793,0.7296,0.2025,1.3996
5767.0,5.4149,-9.9792,-12.0793,0.7296,0.2025,1.3996
5771.0,12.3688,-5.5842,0.3275,0.7296,0.2025,1.3996
5776.0,12.3688,-5.5842,0.3275,-0.271,-1.4267,3.7881
5781.0,12.3688,-5.5842,0.3275,-0.271,-1.4267,3.7881
5786.0,12.3688,-5.5842,0.3275,-0.271,-1.4267,3.7881
5791.0,12.3688,-5.5842,0.3275,-0.271,-1.4267,3.7881
5796.0,12.3688,-5.5842,0.3275,-0.271,-1.4267,3.7881
5801.0,12.977,-14.3074,-10.0889,-0.271,-1.4267,3.7881
5806.0,12.977,-14.3074,-10.0889,-0.5275,1.1432,2.7105
5811.0,12.977,-14.3074,-10.0889,-0.5275,1.1432,2.7105
5816.0,12.977,-14.3074,-10.0889,-0.5275,1.1432,2.7105
5821.0,12.977,-14.3074,-10.0889,-0.5275,1.1432,2.7105
5826.0,5.4245,-6.7807,-2.3832,-0.5275,1.1432,2.7105
5831.0,5.4245,-6.7807,-2.3832,-0.5275,1.1432,2.7105
5836.0,5.4245,-6.7807,-2.3832,-0.5678,-1.4579,2.3965
5841.0,5.4245,-6.7807,-2.3832,-0.5678,-1.4579,2.3965
5846.0,5.4245,-6.7807,-2.3832,-0.5678,-1.4579,2.3965
5853.0,3.9925,-3.3247,1.1853,-0.5678,-1.4579,2.3965
5857.0,3.9925,-3.3247,1.1853,-0.5678,-1.4579,2.3965
5862.0,3.9925,-3.3247,1.1853,-0.5678,-1.4579,2.3965
5866.0,3.9925,-3.3247,1.1853,-0.5678,-1.4579,2.3965
5871.0,3.9925,-3.3247,1.1853,-0.8953,0.0216,2.6659
5876.0,3.9111,-6.2849,-0.0327,-0.8953,0.0216,2.6659
5881.0,3.9111,-6.2849,-0.0327,-0.8953,0.0216,2.6659
5887.0,3.9111,-6.2849,-0.0327,-0.8953,0.0216,2.6659
5891.0,3.9111,-6.2849,-0.0327,-0.8953,0.0216,2.6659
5896.0,3.9111,-6.2849,-0.0327,-0.8953,0.0216,2.6659
5902.0,3.9111,-6.2849,-0.0327,-0.1592,0.6637,2.077
5906.0,7.0145,-12.0194,1.1663,-0.1592,0.6637,2.077
5911.0,7.0145,-12.0194,1.1663,-0.1592,0.6637,2.077
5917.0,7.0145,-12.0194,1.1663,-0.1592,0.6637,2.077
5921.0,7.0145,-12.0194,1.1663,-0.1592,0.6637,2.077
5927.0,7.0145,-12.0194,1.1663,-0.1592,0.6637,2.077
5931.0,5.8842,-15.5277,0.1427,0.054,0.7327,1.3922
5936.0,5.8842,-15.5277,0.1427,0.054,0.7327,1.3922
5941.0,5.8842,-15.5277,0.1427,0.054,0.7327,1.3922
5946.0,5.8842,-15.5277,0.1427,0.054,0.7327,1.3922
5951.0,5.8842,-15.5277,0.1427,0.054,0.7327,1.3922
5956.0,5.8842,-15.5277,0.1427,0.054,0.7327,1.3922
5961.0,-1.1512,-12.3959,-6.8332,-0.3766,1.7309,1.5505
5966.0,-1.1512,-12.3959,-6.8332,-0.3766,1.7309,1.5505
5971.0,-1.1512,-12.3959,-6.8332,-0.3766,1.7309,1.5505
5976.0,-1.1512,-12.3959,-6.8332,-0.3766,1.7309,1.5505
5981.0,-1.1512,-12.3959,-6.8332,-0.3766,1.7309,1.5505
5986.0,1.4781,-8.6779,-3.2884,-0.3766,1.7309,1.5505
5991.0,1.4781,-8.6779,-3.2884,-0.3766,1.7309,1.5505
5996.0,1.4781,-8.6779,-3.2884,-0.194,0.8579,1.4002
6001.0,1.4781,-8.6779,-3.2884,-0.194,0.8579,1.4002
6010.0,1.4781,-8.6779,-3.2884,-0.194,0.8579,1.4002
6011.0,1.4781,-8.6779,-3.2884,-0.194,0.8579,1.4002
6016.0,2.9436,-7.9438,-0.9662,-0.194,0.8579,1.4002
6021.0,2.9436,-7.9438,-0.9662,-0.194,0.8579,1.4002
6026.0,2.9436,-7.9438,-0.9662,-0.0718,1.6539,1.1785
6031.0,2.9436,-7.9438,-0.9662,-0.0718,1.6539,1.1785
6036.0,2.9436,-7.9438,-0.9662,-0.0718,1.6539,1.1785
6041.0,2.5605,-6.8474,-0.9947,-0.0718,1.6539,1.1785
6046.0,2.5605,-6.8474,-0.9947,-0.0718,1.6539,1.1785
6051.0,2.5605,-6.8474,-0.9947,-0.0718,1.6539,1.1785
6056.0,2.5605,-6.8474,-0.9947,-0.0718,1.6539,1.1785
6061.0,2.5605,-6.8474,-0.9947,-0.0871,2.1126,0.6916
6067.0,2.254,-6.2849,-1.4781,-0.0871,2.1126,0.6916
6071.0,2.254,-6.2849,-1.4781,-0.0871,2.1126,0.6916
6076.0,2.254,-6.2849,-1.4781,-0.0871,2.1126,0.6916
6081.0,2.254,-6.2849,-1.4781,-0.0871,2.1126,0.6916
6086.0,2.254,-6.2849,-1.4781,-0.0871,2.1126,0.6916
6091.0,2.254,-6.2849,-1.4781,-0.0474,1.9129,0.5798
6096.0,1.7942,-7.4766,-1.0373,-0.0474,1.9129,0.5798
6101.0,1.7942,-7.4766,-1.0373,-0.0474,1.9129,0.5798
6106.0,1.7942,-7.4766,-1.0373,-0.0474,1.9129,0.5798
6111.0,1.7942,-7.4766,-1.0373,-0.0474,1.9129,0.5798
6116.0,1.7942,-7.4766,-1.0373,-0.0474,1.9129,0.5798
6121.0,1.8852,-8.2059,0.1853,0.3478,1.1896,1.0367
6126.0,1.8852,-8.2059,0.1853,0.3478,1.1896,1.0367
6132.0,1.8852,-8.2059,0.1853,0.3478,1.1896,1.0367
6136.0,1.8852,-8.2059,0.1853,0.3478,1.1896,1.0367
6141.0,1.8852,-8.2059,0.1853,0.3478,1.1896,1.0367
6146.0,1.8852,-8.2059,0.1853,0.3478,1.1896,1.0367
6152.0,2.8479,-7.3527,-0.5777,0.5177,1.1695,1.38
6156.0,2.8479,-7.3527,-0.5777,0.5177,1.1695,1.38
6161.0,2.8479,-7.3527,-0.5777,0.5177,1.1695,1.38
6166.0,2.8479,-7.3527,-0.5777,0.5177,1.1695,1.38
6172.0,2.8479,-7.3527,-0.5777,0.5177,1.1695,1.38
6176.0,4.2846,-8.6349,-5.0892,0.5177,1.1695,1.38
6181.0,4.2846,-8.6349,-5.0892,0.2403,1.5348,0.8431
6186.0,4.2846,-8.6349,-5.0892,0.2403,1.5348,0.8431
6191.0,4.2846,-8.6349,-5.0892,0.2403,1.5348,0.8431
6196.0,4.2846,-8.6349,-5.0892,0.2403,1.5348,0.8431
6201.0,4.2846,-8.6349,-5.0892,0.2403,1.5348,0.8431
6206.0,4.093,-11.0041,-4.8333,0.2403,1.5348,0.8431
6211.0,4.093,-11.0041,-4.8333,0.1353,0.233,0.4289
6216.0,4.093,-11.0041,-4.8333,0.1353,0.233,0.4289
6221.0,4.093,-11.0041,-4.8333,0.1353,0.233,0.4289
6227.0,4.093,-11.0041,-4.8333,0.1353,0.233,0.4289
6231.0,2.6659,-11.5332,-3.9566,0.1353,0.233,0.4289
6236.0,2.6659,-11.5332,-3.9566,0.1353,0.233,0.4289
6241.0,2.6659,-11.5332,-3.9566,0.3191,-0.2887,0.9707
6246.0,2.6659,-11.5332,-3.9566,0.3191,-0.2887,0.9707
6251.0,2.6659,-11.5332,-3.9566,0.3191,-0.2887,0.9707
6256.0,2.139,-12.7868,-2.6297,0.3191,-0.2887,0.9707
6261.0,2.139,-12.7868,-2.6297,0.3191,-0.2887,0.9707
6267.0,2.139,-12.7868,-2.6297,0.3191,-0.2887,0.9707
6272.0,2.139,-12.7868,-2.6297,0.6936,-0.296,0.6293
6276.0,2.139,-12.7868,-2.6297,0.6936,-0.296,0.6293
6282.0,3.7195,-13.6782,-0.644,0.6936,-0.296,0.6293
6286.0,3.7195,-13.6782,-0.644,0.6936,-0.296,0.6293
6292.0,3.7195,-13.6782,-0.644,0.6936,-0.296,0.6293
6296.0,3.7195,-13.6782,-0.644,0.6936,-0.296,0.6293
6301.0,3.7195,-13.6782,-0.644,0.6936,-0.296,0.6293
6306.0,3.7195,-13.6782,-0.644,0.6246,0.3869,-0.0396
6311.0,5.4771,-13.9881,-1.2743,0.6246,0.3869,-0.0396
6316.0,5.4771,-13.9881,-1.2743,0.6246,0.3869,-0.0396
6321.0,5.4771,-13.9881,-1.2743,0.6246,0.3869,-0.0396
6327.0,5.4771,-13.9881,-1.2743,0.6246,0.3869,-0.0396
6331.0,5.4771,-13.9881,-1.2743,0.3094,0.3735,-1.0158
6336.0,6.7319,-15.2465,-0.2744,0.3094,0.3735,-1.0158
6341.0,6.7319,-15.2465,-0.2744,0.3094,0.3735,-1.0158
6346.0,6.7319,-15.2465,-0.2744,0.3094,0.3735,-1.0158
6352.0,6.7319,-15.2465,-0.2744,0.3094,0.3735,-1.0158
6356.0,6.7319,-15.2465,-0.2744,0.3094,0.3735,-1.0158
6361.0,6.7319,-15.2465,-0.2744,0.3094,0.3735,-1.0158
6367.0,7.2731,-13.5829,-0.2412,0.0216,-0.114,-1.6609
6371.0,7.2731,-13.5829,-0.2412,0.0216,-0.114,-1.6609
6376.0,7.2731,-13.5829,-0.2412,0.0216,-0.114,-1.6609
6381.0,7.2731,-13.5829,-0.2412,0.0216,-0.114,-1.6609
6386.0,7.2731,-13.5829,-0.2412,0.0216,-0.114,-1.6609
6391.0,8.116,-9.8267,-3.2742,0.0216,-0.114,-1.6609
6397.0,8.116,-9.8267,-3.2742,-0.2685,-0.0272,-2.4648
6401.0,8.116,-9.8267,-3.2742,-0.2685,-0.0272,-2.4648
6406.0,8.116,-9.8267,-3.2742,-0.2685,-0.0272,-2.4648
6411.0,8.116,-9.8267,-3.2742,-0.2685,-0.0272,-2.4648
6417.0,10.1322,-10.7085,-7.8663,-0.2685,-0.0272,-2.4648
6421.0,10.1322,-10.7085,-7.8663,-0.2685,-0.0272,-2.4648
6426.0,10.1322,-10.7085,-7.8663,-1.0779,-1.2392,-4.5289
6432.0,10.1322,-10.7085,-7.8663,-1.0779,-1.2392,-4.5289
6436.0,10.1322,-10.7085,-7.8663,-1.0779,-1.2392,-4.5289
6442.0,10.1322,-10.7085,-7.8663,-1.0779,-1.2392,-4.5289
6446.0,9.1121,-12.1719,-6.7432,-1.0779,-1.2392,-4.5289
6451.0,9.1121,-12.1719,-6.7432,-1.0779,-1.2392,-4.5289
6456.0,9.1121,-12.1719,-6.7432,-0.9398,-1.9142,-5.1813
6461.0,9.1121,-12.1719,-6.7432,-0.9398,-1.9142,-5.1813
6466.0,9.1121,-12.1719,-6.7432,-0.9398,-1.9142,-5.1813
6471.0,9.1121,-12.1719,-6.7432,-0.9398,-1.9142,-5.1813
6476.0,4.0691,-12.4198,-3.767,-0.9398,-1.9142,-5.1813
6481.0,4.0691,-12.4198,-3.767,-0.9398,-1.9142,-5.1813
6486.0,4.0691,-12.4198,-3.767,-0.6759,-3.9148,-2.4617
6491.0,4.0691,-12.4198,-3.767,-0.6759,-3.9148,-2.4617
6496.0,4.0691,-12.4198,-3.767,-0.6759,-3.9148,-2.4617
6501.0,1.3776,-10.8038,3.7207,-0.6759,-3.9148,-2.4617
6506.0,1.3776,-10.8038,3.7207,-0.6759,-3.9148,-2.4617
6511.0,1.3776,-10.8038,3.7207,-0.6759,-3.9148,-2.4617
6516.0,1.3776,-10.8038,3.7207,-0.6759,-3.9148,-2.4617
6521.0,1.3776,-10.8038,3.7207,0.095,-3.3925,-0.24
6526.0,1.8277,-9.4977,6.2371,0.095,-3.3925,-0.24
6531.0,1.8277,-9.4977,6.2371,0.095,-3.3925,-0.24
6536.0,1.8277,-9.4977,6.2371,0.095,-3.3925,-0.24
6541.0,1.8277,-9.4977,6.2371,0.095,-3.3925,-0.24
6546.0,1.8277,-9.4977,6.2371,0.095,-3.3925,-0.24
6551.0,1.8277,-9.4977,6.2371,0.7602,-2.4078,-0.0628
6557.0,2.9053,-8.02,6.6399,0.7602,-2.4078,-0.0628
6561.0,2.9053,-8.02,6.6399,0.7602,-2.4078,-0.0628
6566.0,2.9053,-8.02,6.6399,0.7602,-2.4078,-0.0628
6571.0,2.9053,-8.02,6.6399,0.7602,-2.4078,-0.0628
6576.0,2.9053,-8.02,6.6399,0.7602,-2.4078,-0.0628
6581.0,-2.4203,-12.4722,-18.3539,0.8519,-1.018,-1.2821
6586.0,-2.4203,-12.4722,-18.3539,0.8519,-1.018,-1.2821
6591.0,-2.4203,-12.4722,-18.3539,0.8519,-1.018,-1.2821
6596.0,-2.4203,-12.4722,-18.3539,0.8519,-1.018,-1.2821
6602.0,-2.4203,-12.4722,-18.3539,0.8519,-1.018,-1.2821
6606.0,-2.4203,-12.4722,-18.3539,0.8519,-1.018,-1.2821
6611.0,3.7578,-5.7892,-0.9662,1.4071,1.8335,-5.4409
6618.0,3.7578,-5.7892,-0.9662,1.4071,1.8335,-5.4409
6621.0,3.7578,-5.7892,-0.9662,1.4071,1.8335,-5.4409
6626.0,3.7578,-5.7892,-0.9662,1.4071,1.8335,-5.4409
6631.0,3.7578,-5.7892,-0.9662,1.4071,1.8335,-5.4409
6636.0,3.7578,-5.7892,-0.9662,1.4071,1.8335,-5.4409
6641.0,3.6476,-3.5917,-2.2126,0.7028,2.2422,-4.9125
6647.0,3.6476,-3.5917,-2.2126,0.7028,2.2422,-4.9125
6652.0,3.6476,-3.5917,-2.2126,0.7028,2.2422,-4.9125
6656.0,3.6476,-3.5917,-2.2126,0.7028,2.2422,-4.9125
6661.0,3.6476,-3.5917,-2.2126,0.7028,2.2422,-4.9125
6666.0,1.6266,-1.5944,-0.3596,0.7028,2.2422,-4.9125
6671.0,1.6266,-1.5944,-0.3596,0.1872,0.1591,-2.4238
6677.0,1.6266,-1.5944,-0.3596,0.1872,0.1591,-2.4238
6681.0,1.6266,-1.5944,-0.3596,0.1872,0.1591,-2.4238
6686.0,1.6266,-1.5944,-0.3596,0.1872,0.1591,-2.4238
6691.0,1.6266,-1.5944,-0.3596,0.1872,0.1591,-2.4238
6696.0,2.1247,-2.6431,-2.9756,0.1872,0.1591,-2.4238
6701.0,2.1247,-2.6431,-2.9756,0.6197,-0.5232,-0.7049
6706.0,2.1247,-2.6431,-2.9756,0.6197,-0.5232,-0.7049
6711.0,2.1247,-2.6431,-2.9756,0.6197,-0.5232,-0.7049
6716.0,2.1247,-2.6431,-2.9756,0.6197,-0.5232,-0.7049
6722.0,1.5931,-4.4449,-2.7387,0.6197,-0.5232,-0.7049
6726.0,1.5931,-4.4449,-2.7387,0.6197,-0.5232,-0.7049
6731.0,1.5931,-4.4449,-2.7387,0.6197,-0.5232,-0.7049
6736.0,1.5931,-4.4449,-2.7387,0.9245,-0.0773,0.0764
6741.0,1.5931,-4.4449,-2.7387,0.9245,-0.0773,0.0764
6746.0,1.5931,-4.4449,-2.7387,0.9245,-0.0773,0.0764
6751.0,1.0423,-2.0472,-2.0752,0.9245,-0.0773,0.0764
6756.0,1.0423,-2.0472,-2.0752,0.9245,-0.0773,0.0764
6761.0,1.0423,-2.0472,-2.0752,0.9245,-0.0773,0.0764
6766.0,1.0423,-2.0472,-2.0752,0.2905,1.5189,0.2603
6771.0,1.0423,-2.0472,-2.0752,0.2905,1.5189,0.2603
6776.0,2.3976,0.7461,-3.7102,0.2905,1.5189,0.2603
6782.0,2.3976,0.7461,-3.7102,0.2905,1.5189,0.2603
6786.0,2.3976,0.7461,-3.7102,0.2905,1.5189,0.2603
6791.0,2.3976,0.7461,-3.7102,0.2905,1.5189,0.2603
6796.0,2.3976,0.7461,-3.7102,-0.0919,2.3301,1.5615
6801.0,2.3976,0.7461,-3.7102,-0.0919,2.3301,1.5615
6806.0,0.5969,-2.3046,-8.4113,-0.0919,2.3301,1.5615
6811.0,0.5969,-2.3046,-8.4113,-0.0919,2.3301,1.5615
6816.0,0.5969,-2.3046,-8.4113,-0.0919,2.3301,1.5615
6821.0,0.5969,-2.3046,-8.4113,-0.0919,2.3301,1.5615
6826.0,0.5969,-2.3046,-8.4113,0.4316,1.3411,3.0269
6831.0,-2.1329,-8.9543,-12.6765,0.4316,1.3411,3.0269
6837.0,-2.1329,-8.9543,-12.6765,0.4316,1.3411,3.0269
6841.0,-2.1329,-8.9543,-12.6765,0.4316,1.3411,3.0269
6846.0,-2.1329,-8.9543,-12.6765,0.4316,1.3411,3.0269
6851.0,-2.1329,-8.9543,-12.6765,0.4316,1.3411,3.0269
6856.0,-2.1329,-8.9543,-12.6765,0.4316,1.3411,3.0269
6861.0,5.458,-6.6567,-8.634,-0.0498,-1.6478,4.2505
6866.0,5.458,-6.6567,-8.634,-0.0498,-1.6478,4.2505
6871.0,5.458,-6.6567,-8.634,-0.0498,-1.6478,4.2505
6877.0,5.458,-6.6567,-8.634,-0.0498,-1.6478,4.2505
6882.0,5.458,-6.6567,-8.634,-0.0498,-1.6478,4.2505
6887.0,14.2366,-9.5025,-5.5773,-2.1836,-1.5464,3.3348
6891.0,14.2366,-9.5025,-5.5773,-2.1836,-1.5464,3.3348
6896.0,14.2366,-9.5025,-5.5773,-2.1836,-1.5464,3.3348
6901.0,14.2366,-9.5025,-5.5773,-2.1836,-1.5464,3.3348
6906.0,14.2366,-9.5025,-5.5773,-2.1836,-1.5464,3.3348
6911.0,14.2366,-9.5025,-5.5773,-2.1836,-1.5464,3.3348
6916.0,13.3602,-22.7399,-10.8756,-2.1836,-1.5464,3.3348
6921.0,13.3602,-22.7399,-10.8756,-0.8152,-0.894,1.526
6926.0,13.3602,-22.7399,-10.8756,-0.8152,-0.894,1.526
6932.0,13.3602,-22.7399,-10.8756,-0.8152,-0.894,1.526
6936.0,13.3602,-22.7399,-10.8756,-0.8152,-0.894,1.526
6941.0,4.3995,-4.9168,0.0432,-0.8152,-0.894,1.526
6947.0,4.3995,-4.9168,0.0432,-0.8152,-0.894,1.526
6951.0,4.3995,-4.9168,0.0432,-0.5397,-1.0468,3.0972
6956.0,4.3995,-4.9168,0.0432,-0.5397,-1.0468,3.0972
6961.0,4.3995,-4.9168,0.0432,-0.5397,-1.0468,3.0972
6966.0,4.3995,-4.9168,0.0432,-0.5397,-1.0468,3.0972
6971.0,1.5643,-2.114,-0.4686,-0.5397,-1.0468,3.0972
6976.0,1.5643,-2.114,-0.4686,-0.5397,-1.0468,3.0972
6981.0,1.5643,-2.114,-0.4686,-0.5397,-1.0468,3.0972
6986.0,1.5643,-2.114,-0.4686,-1.2813,-0.9906,3.7795
6992.0,1.5643,-2.114,-0.4686,-1.2813,-0.9906,3.7795
6996.0,2.2827,-6.4422,0.6118,-1.2813,-0.9906,3.7795
7002.0,2.2827,-6.4422,0.6118,-1.2813,-0.9906,3.7795
7006.0,2.2827,-6.4422,0.6118,-1.2813,-0.9906,3.7795
7011.0,2.2827,-6.4422,0.6118,-1.2813,-0.9906,3.7795
7017.0,2.2827,-6.4422,0.6118,-1.2813,-0.9906,3.7795
7021.0,2.2827,-6.4422,0.6118,-0.2263,-1.2129,2.8925
7026.0,6.7223,-12.2482,1.5028,-0.2263,-1.2129,2.8925
7031.0,6.7223,-12.2482,1.5028,-0.2263,-1.2129,2.8925
7036.0,6.7223,-12.2482,1.5028,-0.2263,-1.2129,2.8925
7041.0,6.7223,-12.2482,1.5028,-0.2263,-1.2129,2.8925
7046.0,6.7223,-12.2482,1.5028,-0.2263,-1.2129,2.8925
7051.0,5.4388,-15.7661,0.8109,-0.4371,0.4022,1.3049
7056.0,5.4388,-15.7661,0.8109,-0.4371,0.4022,1.3049
7061.0,5.4388,-15.7661,0.8109,-0.4371,0.4022,1.3049
7066.0,5.4388,-15.7661,0.8109,-0.4371,0.4022,1.3049
7072.0,5.4388,-15.7661,0.8109,-0.4371,0.4022,1.3049
7076.0,-2.9519,-10.3272,-7.9848,-0.4371,0.4022,1.3049
7081.0,-2.9519,-10.3272,-7.9848,-0.4371,0.4022,1.3049
7087.0,-2.9519,-10.3272,-7.9848,-0.6442,1.3454,1.3263
7092.0,-2.9519,-10.3272,-7.9848,-0.6442,1.3454,1.3263
7096.0,-2.9519,-10.3272,-7.9848,-0.6442,1.3454,1.3263
7102.0,-2.9519,-7.9819,-1.7056,-0.6442,1.3454,1.3263
7106.0,0.4484,-7.9819,-1.7056,-0.6442,1.3454,1.3263
7111.0,0.4484,-7.9819,-1.7056,-0.6442,1.3454,1.3263
7116.0,0.4484,-7.9819,-1.7056,-0.3961,0.7388,1.0563
7121.0,0.4484,-7.9819,-1.7056,-0.3961,0.7388,1.0563
7127.0,0.4484,-7.9819,-1.7056,-0.3961,0.7388,1.0563
7131.0,0.4484,-7.9819,-1.7056,-0.3961,0.7388,1.0563
7136.0,1.6122,-6.8474,0.4081,-0.3961,0.7388,1.0563
7142.0,1.6122,-6.8474,0.4081,-0.3961,0.7388,1.0563
7146.0,1.6122,-6.8474,0.4081,-0.3137,1.6178,0.7466
7152.0,1.6122,-6.8474,0.4081,-0.3137,1.6178,0.7466
7156.0,1.6122,-6.8474,0.4081,-0.3137,1.6178,0.7466
7161.0,2.1582,-6.4851,-0.4829,-0.3137,1.6178,0.7466
7166.0,2.1582,-6.4851,-0.4829,-0.3137,1.6178,0.7466
7172.0,2.1582,-6.4851,-0.4829,-0.3137,1.6178,0.7466
7176.0,2.1582,-6.4851,-0.4829,-0.2514,2.2159,0.5028
7182.0,2.1582,-6.4851,-0.4829,-0.2514,2.2159,0.5028
7187.0,2.2588,-7.2049,-0.6677,-0.2514,2.2159,0.5028
7191.0,2.2588,-7.2049,-0.6677,-0.2514,2.2159,0.5028
7196.0,2.2588,-7.2049,-0.6677,-0.2514,2.2159,0.5028
7202.0,2.2588,-7.2049,-0.6677,-0.2514,2.2159,0.5028
7206.0,2.2588,-7.2049,-0.6677,-0.1329,1.7663,0.4191
7211.0,2.2588,-7.2049,-0.6677,-0.1329,1.7663,0.4191
7217.0,2.1725,-7.8866,0.2138,-0.1329,1.7663,0.4191
7221.0,2.1725,-7.8866,0.2138,-0.1329,1.7663,0.4191
7226.0,2.1725,-7.8866,0.2138,-0.1329,1.7663,0.4191
7231.0,2.1725,-7.8866,0.2138,-0.1329,1.7663,0.4191
7236.0,2.1725,-7.8866,0.2138,-0.1329,1.7663,0.4191
7241.0,2.0528,-8.287,0.4649,0.1481,1.1108,0.7362
7246.0,2.0528,-8.287,0.4649,0.1481,1.1108,0.7362
7251.0,2.0528,-8.287,0.4649,0.1481,1.1108,0.7362
7256.0,2.0528,-8.287,0.4649,0.1481,1.1108,0.7362
7261.0,2.0528,-8.287,0.4649,0.1481,1.1108,0.7362
7266.0,2.0528,-8.287,0.4649,0.1481,1.1108,0.7362
7271.0,2.6706,-9.8696,0.5502,0.4615,1.2886,1.107
7276.0,2.6706,-9.8696,0.5502,0.4615,1.2886,1.107
7282.0,2.6706,-9.8696,0.5502,0.4615,1.2886,1.107
7287.0,2.6706,-9.8696,0.5502,0.4615,1.2886,1.107
7292.0,2.6706,-9.8696,0.5502,0.4615,1.2886,1.107
7296.0,5.1131,-11.2138,-5.6627,0.4615,1.2886,1.107
7301.0,5.1131,-11.2138,-5.6627,0.4615,1.2886,1.107
7306.0,5.1131,-11.2138,-5.6627,0.3998,0.5164,1.1589
7311.0,5.1131,-11.2138,-5.6627,0.3998,0.5164,1.1589
7317.0,5.1131,-11.2138,-5.6627,0.3998,0.5164,1.1589
7322.0,6.6696,-11.9384,-7.7005,0.3998,0.5164,1.1589
7326.0,6.6696,-11.9384,-7.7005,0.3998,0.5164,1.1589
7331.0,6.6696,-11.9384,-7.7005,0.3998,0.5164,1.1589
7337.0,6.6696,-11.9384,-7.7005,-0.0412,-0.9936,0.4204
7342.0,6.6696,-11.9384,-7.7005,-0.0412,-0.9936,0.4204
7346.0,6.6696,-11.9384,-7.7005,-0.0412,-0.9936,0.4204
7353.0,2.4072,-12.0671,-1.7387,-0.0412,-0.9936,0.4204
7356.0,2.4072,-12.0671,-1.7387,-0.0412,-0.9936,0.4204
7361.0,2.4072,-12.0671,-1.7387,-0.0412,-0.9936,0.4204
7366.0,2.4072,-12.0671,-1.7387,0.409,-1.7236,0.592
7371.0,2.4072,-12.0671,-1.7387,0.409,-1.7236,0.592
7376.0,2.7856,-11.5332,1.5123,0.409,-1.7236,0.592
7381.0,2.7856,-11.5332,1.5123,0.409,-1.7236,0.592
7386.0,2.7856,-11.5332,1.5123,0.409,-1.7236,0.592
7391.0,2.7856,-11.5332,1.5123,0.409,-1.7236,0.592
7396.0,2.7856,-11.5332,1.5123,0.3925,0.4828,0.8419
7402.0,3.3172,-10.8563,0.9531,0.3925,0.4828,0.8419
7407.0,3.3172,-10.8563,0.9531,0.3925,0.4828,0.8419
7411.0,3.3172,-10.8563,0.9531,0.3925,0.4828,0.8419
7417.0,3.3172,-10.8563,0.9531,0.3925,0.4828,0.8419
7421.0,3.3172,-10.8563,0.9531,0.3925,0.4828,0.8419
7426.0,3.3172,-10.8563,0.9531,0.3925,0.4828,0.8419
7431.0,5.0174,-9.779,-2.7197,0.2636,2.0955,0.0862
7437.0,5.0174,-9.779,-2.7197,0.2636,2.0955,0.0862
7441.0,5.0174,-9.779,-2.7197,0.2636,2.0955,0.0862
7446.0,5.0174,-9.779,-2.7197,0.2636,2.0955,0.0862
7451.0,5.0174,-9.779,-2.7197,0.2636,2.0955,0.0862
7456.0,5.0174,-9.779,-2.7197,0.2636,2.0955,0.0862
7461.0,5.5107,-13.2301,-0.8099,0.2636,2.0955,0.0862
7466.0,5.5107,-13.2301,-0.8099,-0.0816,0.6374,-1.1453
7471.0,5.5107,-13.2301,-0.8099,-0.0816,0.6374,-1.1453
7476.0,5.5107,-13.2301,-0.8099,-0.0816,0.6374,-1.1453
7481.0,5.5107,-13.2301,-0.8099,-0.0816,0.6374,-1.1453
7486.0,4.7827,-13.2301,0.8914,-0.0816,0.6374,-1.1453
7491.0,4.7827,-13.2301,0.8914,-0.0816,0.6374,-1.1453
7496.0,4.7827,-13.2301,0.8914,0.1835,-0.1024,-0.9773
7501.0,4.7827,-13.2301,0.8914,0.1835,-0.1024,-0.9773
7506.0,4.7827,-13.2301,0.8914,0.1835,-0.1024,-0.9773
7511.0,4.4139,-11.1947,1.1853,0.1835,-0.1024,-0.9773
7517.0,4.4139,-11.1947,1.1853,0.1835,-0.1024,-0.9773
7521.0,4.4139,-11.1947,1.1853,0.1835,-0.1024,-0.9773
7526.0,4.4139,-11.1947,1.1853,0.1915,-0.1964,-1.0023
7531.0,4.4139,-11.1947,1.1853,0.1915,-0.1964,-1.0023
7536.0,5.0605,-8.9543,0.6924,0.1915,-0.1964,-1.0023
7541.0,5.0605,-8.9543,0.6924,0.1915,-0.1964,-1.0023
7546.0,5.0605,-8.9543,0.6924,0.1915,-0.1964,-1.0023
7551.0,5.0605,-8.9543,0.6924,0.0345,-0.4628,-0.7788
7556.0,5.0605,-8.9543,0.6924,0.0345,-0.4628,-0.7788
7561.0,5.0605,-8.9543,0.6924,0.0345,-0.4628,-0.7788
7566.0,7.2108,-8.1821,-1.4354,0.0345,-0.4628,-0.7788
7571.0,7.2108,-8.1821,-1.4354,0.0345,-0.4628,-0.7788
7576.0,7.2108,-8.1821,-1.4354,0.0345,-0.4628,-0.7788
7581.0,7.2108,-8.1821,-1.4354,0.0345,-0.4628,-0.7788
7587.0,7.2108,-8.1821,-1.4354,-0.4982,-0.5513,-1.5827
7591.0,6.435,-11.5332,-7.7621,-0.4982,-0.5513,-1.5827
7597.0,6.435,-11.5332,-7.7621,-0.4982,-0.5513,-1.5827
7602.0,6.435,-11.5332,-7.7621,-0.4982,-0.5513,-1.5827
7606.0,6.435,-11.5332,-7.7621,-0.4982,-0.5513,-1.5827
7611.0,6.435,-11.5332,-7.7621,-0.4982,-0.5513,-1.5827
7616.0,6.435,-11.5332,-7.7621,-0.2239,-2.1023,-4.0036
7621.0,5.1036,-12.7153,-5.2361,-0.2239,-2.1023,-4.0036
7626.0,5.1036,-12.7153,-5.2361,-0.2239,-2.1023,-4.0036
7631.0,5.1036,-12.7153,-5.2361,-0.2239,-2.1023,-4.0036
7636.0,5.1036,-12.7153,-5.2361,-0.2239,-2.1023,-4.0036
7641.0,5.1036,-12.7153,-5.2361,-0.2239,-2.1023,-4.0036
7647.0,2.8095,-12.6581,-4.3689,-0.0437,-1.4719,-4.6181
7652.0,2.8095,-12.6581,-4.3689,-0.0437,-1.4719,-4.6181
7656.0,2.8095,-12.6581,-4.3689,-0.0437,-1.4719,-4.6181
7661.0,2.8095,-12.6581,-4.3689,-0.0437,-1.4719,-4.6181
7666.0,2.8095,-12.6581,-4.3689,-0.0437,-1.4719,-4.6181
7672.0,4.9359,-8.9591,-0.0848,-0.0437,-1.4719,-4.6181
7676.0,4.9359,-8.9591,-0.0848,-0.475,-2.7853,-2.1257
7681.0,4.9359,-8.9591,-0.0848,-0.475,-2.7853,-2.1257
7687.0,4.9359,-8.9591,-0.0848,-0.475,-2.7853,-2.1257
7692.0,4.9359,-8.9591,-0.0848,-0.475,-2.7853,-2.1257
7696.0,4.9359,-8.9591,-0.0848,-0.475,-2.7853,-2.1257
7702.0,5.0796,-8.3871,2.7776,-0.475,-2.7853,-2.1257
7706.0,5.0796,-8.3871,2.7776,-0.5629,-4.3009,-0.0085
7712.0,5.0796,-8.3871,2.7776,-0.5629,-4.3009,-0.0085
7716.0,5.0796,-8.3871,2.7776,-0.5629,-4.3009,-0.0085
7722.0,5.0796,-8.3871,2.7776,-0.5629,-4.3009,-0.0085
7726.0,4.4905,-8.9686,4.6827,-0.5629,-4.3009,-0.0085
7731.0,4.4905,-8.9686,4.6827,-0.5629,-4.3009,-0.0085
7736.0,4.4905,-8.9686,4.6827,0.6991,-2.5623,-0.0011
7742.0,4.4905,-8.9686,4.6827,0.6991,-2.5623,-0.0011
7746.0,4.4905,-8.9686,4.6827,0.6991,-2.5623,-0.0011
7751.0,4.4905,-8.9686,4.6827,0.6991,-2.5623,-0.0011
7756.0,0.8555,-10.0555,-4.2078,0.6991,-2.5623,-0.0011
7761.0,0.8555,-10.0555,-4.2078,0.6991,-2.5623,-0.0011
7767.0,0.8555,-10.0555,-4.2078,0.6991,-2.5623,-0.0011
7783.0,0.8555,-10.0555,-4.2078,0.6991,-2.5623,-0.0011
7784.0,0.8555,-10.0555,-4.2078,0.6991,-2.5623,-0.0011
7784.0,0.8555,-10.0555,-4.2078,0.6991,-2.5623,-0.0011
7786.0,1.3584,-9.9029,-4.421,1.6057,-0.2795,-2.9126
7792.0,1.3584,-9.9029,-4.421,1.6057,-0.2795,-2.9126
7796.0,1.3584,-9.9029,-4.421,1.6057,-0.2795,-2.9126
7801.0,1.3584,-9.9029,-4.421,1.6057,-0.2795,-2.9126
7806.0,1.3584,-9.9029,-4.421,1.6057,-0.2795,-2.9126
7811.0,1.3584,-9.9029,-4.421,1.6057,-0.2795,-2.9126
7816.0,3.0921,-6.509,-5.075,1.6057,-0.2795,-2.9126
7821.0,3.0921,-6.509,-5.075,0.2996,1.1517,-4.6401
7826.0,3.0921,-6.509,-5.075,0.2996,1.1517,-4.6401
7831.0,3.0921,-6.509,-5.075,0.2996,1.1517,-4.6401
7836.0,3.0921,-6.509,-5.075,0.2996,1.1517,-4.6401
7842.0,3.3842,-6.1371,-2.0847,0.2996,1.1517,-4.6401
7846.0,3.3842,-6.1371,-2.0847,0.2996,1.1517,-4.6401
7851.0,3.3842,-6.1371,-2.0847,0.2984,-0.5935,-3.1978
7856.0,3.3842,-6.1371,-2.0847,0.2984,-0.5935,-3.1978
7861.0,3.3842,-6.1371,-2.0847,0.2984,-0.5935,-3.1978
7866.0,1.7559,-4.6165,-0.0848,0.2984,-0.5935,-3.1978
7871.0,1.7559,-4.6165,-0.0848,0.2984,-0.5935,-3.1978
7877.0,1.7559,-4.6165,-0.0848,0.2984,-0.5935,-3.1978
7881.0,1.7559,-4.6165,-0.0848,0.8891,-0.5642,-1.5515
7886.0,1.7559,-4.6165,-0.0848,0.8891,-0.5642,-1.5515
7891.0,1.7559,-4.6165,-0.0848,0.8891,-0.5642,-1.5515
7896.0,0.7789,-3.4582,-3.0799,0.8891,-0.5642,-1.5515
7901.0,0.7789,-3.4582,-3.0799,0.8891,-0.5642,-1.5515
7907.0,0.7789,-3.4582,-3.0799,0.8891,-0.5642,-1.5515
7911.0,0.7789,-3.4582,-3.0799,0.8262,-0.1311,-1.2992
7916.0,0.7789,-3.4582,-3.0799,0.8262,-0.1311,-1.2992
7921.0,0.8364,-3.2485,-3.5443,0.8262,-0.1311,-1.2992
7926.0,0.8364,-3.2485,-3.5443,0.8262,-0.1311,-1.2992
7931.0,0.8364,-3.2485,-3.5443,0.8262,-0.1311,-1.2992
7936.0,0.8364,-3.2485,-3.5443,0.8262,-0.1311,-1.2992
7941.0,0.8364,-3.2485,-3.5443,0.3607,0.4487,-0.758
7946.0,0.8364,-3.2485,-3.5443,0.3607,0.4487,-0.758
7952.0,1.7798,-2.7098,-4.53,0.3607,0.4487,-0.758
7956.0,1.7798,-2.7098,-4.53,0.3607,0.4487,-0.758
7961.0,1.7798,-2.7098,-4.53,0.3607,0.4487,-0.758
7966.0,1.7798,-2.7098,-4.53,0.3607,0.4487,-0.758
7971.0,1.7798,-2.7098,-4.53,0.0137,0.4358,0.4582
7976.0,2.3641,-3.2056,-4.8096,0.0137,0.4358,0.4582
7981.0,2.3641,-3.2056,-4.8096,0.0137,0.4358,0.4582
7986.0,2.3641,-3.2056,-4.8096,0.0137,0.4358,0.4582
7991.0,2.3641,-3.2056,-4.8096,0.0137,0.4358,0.4582
7996.0,2.3641,-3.2056,-4.8096,0.0137,0.4358,0.4582
8002.0,1.5356,-2.5477,-6.1982,0.0632,0.5531,1.325
8006.0,1.5356,-2.5477,-6.1982,0.0632,0.5531,1.325
8011.0,1.5356,-2.5477,-6.1982,0.0632,0.5531,1.325
8016.0,1.5356,-2.5477,-6.1982,0.0632,0.5531,1.325
8021.0,1.5356,-2.5477,-6.1982,0.0632,0.5531,1.325
8027.0,1.5356,-2.5477,-6.1982,0.0632,0.5531,1.325
8031.0,0.2281,-1.3036,-6.8285,0.0632,0.5531,1.325
8036.0,0.2281,-1.3036,-6.8285,0.2214,0.8286,1.1913
8041.0,0.2281,-1.3036,-6.8285,0.2214,0.8286,1.1913
8046.0,0.2281,-1.3036,-6.8285,0.2214,0.8286,1.1913
8051.0,0.2281,-1.3036,-6.8285,0.2214,0.8286,1.1913
8056.0,0.2281,-1.3036,-6.8285,0.2214,0.8286,1.1913
8061.0,-2.9807,-5.0026,-9.8425,0.2214,0.8286,1.1913
8067.0,-2.9807,-5.0026,-9.8425,0.3326,1.8518,1.5065
8071.0,-2.9807,-5.0026,-9.8425,0.3326,1.8518,1.5065
8076.0,-2.9807,-5.0026,-9.8425,0.3326,1.8518,1.5065
8082.0,-2.9807,-5.0026,-9.8425,0.3326,1.8518,1.5065
8086.0,-2.4921,-9.7647,-17.8515,0.3326,1.8518,1.5065
8091.0,-2.4921,-9.7647,-17.8515,0.3326,1.8518,1.5065
8096.0,-2.4921,-9.7647,-17.8515,0.0034,0.3039,2.1986
8101.0,-2.4921,-9.7647,-17.8515,0.0034,0.3039,2.1986
8106.0,-2.4921,-9.7647,-17.8515,0.0034,0.3039,2.1986
8111.0,-2.4921,-9.7647,-17.8515,0.0034,0.3039,2.1986
8116.0,8.638,-10.8849,-6.6768,0.0034,0.3039,2.1986
8121.0,8.638,-10.8849,-6.6768,0.0034,0.3039,2.1986
8126.0,8.638,-10.8849,-6.6768,-1.4841,-2.4169,3.2529
8131.0,8.638,-10.8849,-6.6768,-1.4841,-2.4169,3.2529
8136.0,8.638,-10.8849,-6.6768,-1.4841,-2.4169,3.2529
8142.0,13.4224,-10.9469,4.9955,-1.4841,-2.4169,3.2529
8146.0,13.4224,-10.9469,4.9955,-1.4841,-2.4169,3.2529
8151.0,13.4224,-10.9469,4.9955,-1.4841,-2.4169,3.2529
8156.0,13.4224,-10.9469,4.9955,-1.5605,2.5232,3.0495
8161.0,13.4224,-10.9469,4.9955,-1.5605,2.5232,3.0495
8166.0,9.7539,-13.5257,-20.5528,-1.5605,2.5232,3.0495
8171.0,9.7539,-13.5257,-20.5528,-1.5605,2.5232,3.0495
8177.0,9.7539,-13.5257,-20.5528,-1.5605,2.5232,3.0495
8181.0,9.7539,-13.5257,-20.5528,-1.5605,2.5232,3.0495
8186.0,9.7539,-13.5257,-20.5528,-0.1848,0.0852,0.1345
8192.0,9.7539,-13.5257,-20.5528,-0.1848,0.0852,0.1345
8196.0,3.5471,-3.0292,-1.6582,-0.1848,0.0852,0.1345
8201.0,3.5471,-3.0292,-1.6582,-0.1848,0.0852,0.1345
8207.0,3.5471,-3.0292,-1.6582,-0.1848,0.0852,0.1345
8211.0,3.5471,-3.0292,-1.6582,-0.1848,0.0852,0.1345
8216.0,3.5471,-3.0292,-1.6582,-0.1848,0.0852,0.1345
8221.0,4.3469,-4.1017,2.0004,-1.453,-0.6656,2.6861
8226.0,4.3469,-4.1017,2.0004,-1.453,-0.6656,2.6861
8231.0,4.3469,-4.1017,2.0004,-1.453,-0.6656,2.6861
8236.0,4.3469,-4.1017,2.0004,-1.453,-0.6656,2.6861
8241.0,4.3469,-4.1017,2.0004,-1.453,-0.6656,2.6861
8246.0,4.4139,-10.3891,-4.0372,-1.453,-0.6656,2.6861
8251.0,4.4139,-10.3891,-4.0372,-0.6979,-1.4994,3.5901
8256.0,4.4139,-10.3891,-4.0372,-0.6979,-1.4994,3.5901
8261.0,4.4139,-10.3891,-4.0372,-0.6979,-1.4994,3.5901
8266.0,4.4139,-10.3891,-4.0372,-0.6979,-1.4994,3.5901
8271.0,4.4139,-10.3891,-4.0372,-0.6979,-1.4994,3.5901
8277.0,5.4149,-13.764,-3.6343,-0.6979,-1.4994,3.5901
8281.0,5.4149,-13.764,-3.6343,-0.2551,-1.0486,2.672
8286.0,5.4149,-13.764,-3.6343,-0.2551,-1.0486,2.672
8291.0,5.4149,-13.764,-3.6343,-0.2551,-1.0486,2.672
8296.0,5.4149,-13.764,-3.6343,-0.2551,-1.0486,2.672
8301.0,3.0442,-9.5406,-1.0895,-0.2551,-1.0486,2.672
8306.0,3.0442,-9.5406,-1.0895,-0.2551,-1.0486,2.672
8311.0,3.0442,-9.5406,-1.0895,-0.3607,-0.8806,1.8253
8316.0,3.0442,-9.5406,-1.0895,-0.3607,-0.8806,1.8253
8321.0,3.0442,-9.5406,-1.0895,-0.3607,-0.8806,1.8253
8326.0,3.0442,-9.5406,-1.0895,-0.3607,-0.8806,1.8253
8332.0,2.3019,-7.1429,1.3512,-0.3607,-0.8806,1.8253
8336.0,2.3019,-7.1429,1.3512,-0.3607,-0.8806,1.8253
8341.0,2.3019,-7.1429,1.3512,-0.6124,0.0607,1.5773
8346.0,2.3019,-7.1429,1.3512,-0.6124,0.0607,1.5773
8351.0,2.3019,-7.1429,1.3512,-0.6124,0.0607,1.5773
8356.0,1.2195,-6.938,1.1711,-0.6124,0.0607,1.5773
8362.0,1.2195,-6.938,1.1711,-0.6124,0.0607,1.5773
8367.0,1.2195,-6.938,1.1711,-0.6124,0.0607,1.5773
8371.0,1.2195,-6.938,1.1711,-0.635,1.1298,1.2053
8376.0,1.2195,-6.938,1.1711,-0.635,1.1298,1.2053
8381.0,-0.6387,-8.8113,-1.9994,-0.635,1.1298,1.2053
8386.0,-0.6387,-8.8113,-1.9994,-0.635,1.1298,1.2053
8391.0,-0.6387,-8.8113,-1.9994,-0.635,1.1298,1.2053
8396.0,-0.6387,-8.8113,-1.9994,-0.635,1.1298,1.2053
8401.0,-0.6387,-8.8113,-1.9994,-0.635,1.1298,1.2053
8406.0,-0.6387,-8.8113,-1.9994,-0.475,1.6374,0.4607
8411.0,1.5404,-8.2155,-4.0656,-0.475,1.6374,0.4607
8416.0,1.5404,-8.2155,-4.0656,-0.475,1.6374,0.4607
8421.0,1.5404,-8.2155,-4.0656,-0.475,1.6374,0.4607
8426.0,1.5404,-8.2155,-4.0656,-0.475,1.6374,0.4607
8431.0,1.5404,-8.2155,-4.0656,-0.5055,2.4908,-0.0543
8436.0,3.1735,-8.8018,-2.8903,-0.5055,2.4908,-0.0543
8441.0,3.1735,-8.8018,-2.8903,-0.5055,2.4908,-0.0543
8446.0,3.1735,-8.8018,-2.8903,-0.5055,2.4908,-0.0543
8451.0,3.1735,-8.8018,-2.8903,-0.5055,2.4908,-0.0543
8456.0,3.1735,-8.8018,-2.8903,-0.5055,2.4908,-0.0543
8461.0,2.7042,-9.2785,-1.4639,-0.5055,2.4908,-0.0543
8466.0,2.7042,-9.2785,-1.4639,0.004,2.2135,0.0825
8471.0,2.7042,-9.2785,-1.4639,0.004,2.2135,0.0825
8476.0,2.7042,-9.2785,-1.4639,0.004,2.2135,0.0825
8481.0,2.7042,-9.2785,-1.4639,0.004,2.2135,0.0825
8486.0,2.7042,-9.2785,-1.4639,0.004,2.2135,0.0825
8491.0,2.0863,-8.0868,-0.5729,0.004,2.2135,0.0825
8497.0,2.0863,-8.0868,-0.5729,0.0211,0.839,0.7643
8501.0,2.0863,-8.0868,-0.5729,0.0211,0.839,0.7643
8507.0,2.0863,-8.0868,-0.5729,0.0211,0.839,0.7643
8511.0,2.0863,-8.0868,-0.5729,0.0211,0.839,0.7643
8516.0,1.2578,-7.9676,0.2612,0.0211,0.839,0.7643
8521.0,1.2578,-7.9676,0.2612,0.0211,0.839,0.7643
8526.0,1.2578,-7.9676,0.2612,0.0211,0.839,0.7643
8531.0,1.2578,-7.9676,0.2612,0.1371,0.2184,1.2194
8536.0,1.2578,-7.9676,0.2612,0.1371,0.2184,1.2194
8542.0,0.9896,-8.1869,0.6213,0.1371,0.2184,1.2194
8546.0,0.9896,-8.1869,0.6213,0.1371,0.2184,1.2194
8551.0,0.9896,-8.1869,0.6213,0.1371,0.2184,1.2194
8556.0,0.9896,-8.1869,0.6213,0.1371,0.2184,1.2194
8561.0,0.9896,-8.1869,0.6213,0.5391,0.8317,1.4558
8566.0,0.9896,-8.1869,0.6213,0.5391,0.8317,1.4558
8571.0,2.0768,-9.4596,0.5171,0.5391,0.8317,1.4558
8576.0,2.0768,-9.4596,0.5171,0.5391,0.8317,1.4558
8581.0,2.0768,-9.4596,0.5171,0.5391,0.8317,1.4558
8586.0,2.0768,-9.4596,0.5171,0.5391,0.8317,1.4558
8593.0,2.0768,-9.4596,0.5171,0.5892,1.1872,1.7374
8597.0,5.1706,-10.9421,-4.767,0.5892,1.1872,1.7374
8602.0,5.1706,-10.9421,-4.767,0.5892,1.1872,1.7374
8606.0,5.1706,-10.9421,-4.767,0.5892,1.1872,1.7374
8611.0,5.1706,-10.9421,-4.767,0.5892,1.1872,1.7374
8616.0,5.1706,-10.9421,-4.767,0.5892,1.1872,1.7374
8621.0,5.1706,-10.9421,-4.767,0.2276,-0.5666,0.603
8627.0,4.0595,-13.3779,-5.6532,0.2276,-0.5666,0.603
8631.0,4.0595,-13.3779,-5.6532,0.2276,-0.5666,0.603
8637.0,4.0595,-13.3779,-5.6532,0.2276,-0.5666,0.603
8641.0,4.0595,-13.3779,-5.6532,0.2276,-0.5666,0.603
8646.0,4.0595,-13.3779,-5.6532,0.2276,-0.5666,0.603
8651.0,4.0595,-13.3779,-5.6532,0.2276,-0.5666,0.603
8657.0,2.2827,-9.655,-1.9141,0.6784,-0.6423,0.5242
8662.0,2.2827,-9.655,-1.9141,0.6784,-0.6423,0.5242
8666.0,2.2827,-9.655,-1.9141,0.6784,-0.6423,0.5242
8671.0,2.2827,-9.655,-1.9141,0.6784,-0.6423,0.5242
8676.0,2.2827,-9.655,-1.9141,0.6784,-0.6423,0.5242
8681.0,3.3746,-10.3224,-0.881,0.6784,-0.6423,0.5242
8686.0,3.3746,-10.3224,-0.881,0.307,-0.3271,0.479
8691.0,3.3746,-10.3224,-0.881,0.307,-0.3271,0.479
8696.0,3.3746,-10.3224,-0.881,0.307,-0.3271,0.479
8702.0,3.3746,-10.3224,-0.881,0.307,-0.3271,0.479
8706.0,4.4283,-12.8631,-0.2744,0.307,-0.3271,0.479
8711.0,4.4283,-12.8631,-0.2744,0.307,-0.3271,0.479
8716.0,4.4283,-12.8631,-0.2744,0.4114,0.6001,-0.0018
8721.0,4.4283,-12.8631,-0.2744,0.4114,0.6001,-0.0018
8726.0,4.4283,-12.8631,-0.2744,0.4114,0.6001,-0.0018
8731.0,4.4283,-12.8631,-0.2744,0.4114,0.6001,-0.0018
8736.0,5.6304,-13.3732,0.337,0.4114,0.6001,-0.0018
8741.0,5.6304,-13.3732,0.337,0.4114,0.6001,-0.0018
8746.0,5.6304,-13.3732,0.337,0.5587,1.051,-0.488
8752.0,5.6304,-13.3732,0.337,0.5587,1.051,-0.488
8756.0,5.6304,-13.3732,0.337,0.5587,1.051,-0.488
8761.0,6.0087,-13.1586,0.5266,0.5587,1.051,-0.488
8767.0,6.0087,-13.1586,0.5266,0.5587,1.051,-0.488
8771.0,6.0087,-13.1586,0.5266,0.5587,1.051,-0.488
8776.0,6.0087,-13.1586,0.5266,0.2526,-0.767,-0.557
8781.0,6.0087,-13.1586,0.5266,0.2526,-0.767,-0.557
8786.0,6.0087,-13.1586,0.5266,0.2526,-0.767,-0.557
8791.0,6.8229,-14.3313,1.5312,0.2526,-0.767,-0.557
8796.0,6.8229,-14.3313,1.5312,0.2526,-0.767,-0.557
8801.0,6.8229,-14.3313,1.5312,0.2526,-0.767,-0.557
8806.0,6.8229,-14.3313,1.5312,-0.0125,-0.7969,-0.5289
8811.0,6.8229,-14.3313,1.5312,-0.0125,-0.7969,-0.5289
8816.0,7.1007,-14.4362,1.8156,-0.0125,-0.7969,-0.5289
8822.0,7.1007,-14.4362,1.8156,-0.0125,-0.7969,-0.5289
8826.0,7.1007,-14.4362,1.8156,-0.0125,-0.7969,-0.5289
8831.0,7.1007,-14.4362,1.8156,-0.0125,-0.7969,-0.5289
8836.0,7.1007,-14.4362,1.8156,-0.354,1.1389,-0.8729
8842.0,5.1036,-9.8553,-2.3548,-0.354,1.1389,-0.8729
8846.0,5.1036,-9.8553,-2.3548,-0.354,1.1389,-0.8729
8851.0,5.1036,-9.8553,-2.3548,-0.354,1.1389,-0.8729
8856.0,5.1036,-9.8553,-2.3548,-0.354,1.1389,-0.8729
8861.0,5.1036,-9.8553,-2.3548,-0.354,1.1389,-0.8729
8867.0,5.1036,-9.8553,-2.3548,-0.2672,-0.1042,-2.4727
8872.0,2.2635,-11.0994,-8.9231,-0.2672,-0.1042,-2.4727
8877.0,2.2635,-11.0994,-8.9231,-0.2672,-0.1042,-2.4727
8882.0,2.2635,-11.0994,-8.9231,-0.2672,-0.1042,-2.4727
8887.0,2.2635,-11.0994,-8.9231,-0.2672,-0.1042,-2.4727
8891.0,2.2635,-11.0994,-8.9231,-0.2672,-0.1042,-2.4727
8896.0,4.5911,-11.7715,-7.7573,-0.0608,-2.7047,-3.7378
8901.0,4.5911,-11.7715,-7.7573,-0.0608,-2.7047,-3.7378
8907.0,4.5911,-11.7715,-7.7573,-0.0608,-2.7047,-3.7378
8911.0,4.5911,-11.7715,-7.7573,-0.0608,-2.7047,-3.7378
8916.0,4.5911,-11.7715,-7.7573,-0.0608,-2.7047,-3.7378
8922.0,5.0269,-10.6894,-6.1081,-0.0608,-2.7047,-3.7378
8927.0,5.0269,-10.6894,-6.1081,-0.2208,-3.3051,-4.1111
8931.0,5.0269,-10.6894,-6.1081,-0.2208,-3.3051,-4.1111
8936.0,5.0269,-10.6894,-6.1081,-0.2208,-3.3051,-4.1111
8941.0,5.0269,-10.6894,-6.1081,-0.2208,-3.3051,-4.1111
8946.0,5.0269,-10.6894,-6.1081,-0.2208,-3.3051,-4.1111
8951.0,6.5643,-8.0915,0.2564,-0.2208,-3.3051,-4.1111
8956.0,6.5643,-8.0915,0.2564,-0.2208,-3.3051,-4.1111
8962.0,6.5643,-8.0915,0.2564,-0.6209,-3.153,-2.5039
8966.0,6.5643,-8.0915,0.2564,-0.6209,-3.153,-2.5039
8972.0,6.5643,-8.0915,0.2564,-0.6209,-3.153,-2.5039
8976.0,4.7061,-8.8685,4.3225,-0.6209,-3.153,-2.5039
8981.0,4.7061,-8.8685,4.3225,-0.6209,-3.153,-2.5039
8987.0,4.7061,-8.8685,4.3225,-0.6209,-3.153,-2.5039
8991.0,4.7061,-8.8685,4.3225,-0.0424,-3.2648,-1.16
8996.0,4.7061,-8.8685,4.3225,-0.0424,-3.2648,-1.16
9003.0,4.1218,-8.7875,6.5025,-0.0424,-3.2648,-1.16
9006.0,4.1218,-8.7875,6.5025,-0.0424,-3.2648,-1.16
9011.0,4.1218,-8.7875,6.5025,-0.0424,-3.2648,-1.16
9016.0,4.1218,-8.7875,6.5025,-0.0424,-3.2648,-1.16
9021.0,4.1218,-8.7875,6.5025,0.6924,-2.0101,-1.1392
9026.0,4.1218,-8.7875,6.5025,0.6924,-2.0101,-1.1392
9031.0,2.6371,-6.2229,6.0665,0.6924,-2.0101,-1.1392
9037.0,2.6371,-6.2229,6.0665,0.6924,-2.0101,-1.1392
9041.0,2.6371,-6.2229,6.0665,0.6924,-2.0101,-1.1392
9046.0,2.6371,-6.2229,6.0665,0.6924,-2.0101,-1.1392
9051.0,2.6371,-6.2229,6.0665,1.9111,-0.4585,-3.9926
9056.0,-2.995,-12.048,-8.871,1.9111,-0.4585,-3.9926
9061.0,-2.995,-12.048,-8.871,1.9111,-0.4585,-3.9926
9066.0,-2.995,-12.048,-8.871,1.9111,-0.4585,-3.9926
9072.0,-2.995,-12.048,-8.871,1.9111,-0.4585,-3.9926
9076.0,-2.995,-12.048,-8.871,1.9111,-0.4585,-3.9926
9082.0,2.4599,-7.2335,-6.2645,1.5464,1.7999,-5.0934
9086.0,2.4599,-7.2335,-6.2645,1.5464,1.7999,-5.0934
9091.0,2.4599,-7.2335,-6.2645,1.5464,1.7999,-5.0934
9096.0,2.4599,-7.2335,-6.2645,1.5464,1.7999,-5.0934
9101.0,2.4599,-7.2335,-6.2645,1.5464,1.7999,-5.0934
9106.0,3.2932,-5.2601,0.3891,1.5464,1.7999,-5.0934
9111.0,3.2932,-5.2601,0.3891,0.423,-0.0119,-4.1991
9116.0,3.2932,-5.2601,0.3891,0.423,-0.0119,-4.1991
9122.0,3.2932,-5.2601,0.3891,0.423,-0.0119,-4.1991
9126.0,3.2932,-5.2601,0.3891,0.423,-0.0119,-4.1991
9131.0,3.2932,-5.2601,0.3891,0.423,-0.0119,-4.1991
9136.0,1.7942,-2.5382,0.2612,0.423,-0.0119,-4.1991
9141.0,1.7942,-2.5382,0.2612,0.456,-0.1292,-2.6413
9146.0,1.7942,-2.5382,0.2612,0.456,-0.1292,-2.6413
9151.0,1.7942,-2.5382,0.2612,0.456,-0.1292,-2.6413
9156.0,1.7942,-2.5382,0.2612,0.456,-0.1292,-2.6413
9162.0,1.2147,-1.0939,-2.914,0.456,-0.1292,-2.6413
9166.0,1.2147,-1.0939,-2.914,0.456,-0.1292,-2.6413
9171.0,1.2147,-1.0939,-2.914,0.456,-0.1292,-2.6413
9176.0,1.2147,-1.0939,-2.914,0.817,-0.3216,-1.218
9181.0,1.2147,-1.0939,-2.914,0.817,-0.3216,-1.218
9186.0,1.2147,-1.0939,-2.914,0.817,-0.3216,-1.218
9191.0,0.9705,-2.2903,-4.1414,0.817,-0.3216,-1.218
9197.0,0.9705,-2.2903,-4.1414,0.817,-0.3216,-1.218
9201.0,0.9705,-2.2903,-4.1414,0.817,-0.3216,-1.218
9206.0,0.9705,-2.2903,-4.1414,0.5519,0.018,-0.3781
9212.0,0.9705,-2.2903,-4.1414,0.5519,0.018,-0.3781
9216.0,1.1477,-2.6622,-3.9187,0.5519,0.018,-0.3781
9221.0,1.1477,-2.6622,-3.9187,0.5519,0.018,-0.3781
9228.0,1.1477,-2.6622,-3.9187,0.5519,0.018,-0.3781
9231.0,1.1477,-2.6622,-3.9187,0.5519,0.018,-0.3781
9236.0,1.1477,-2.6622,-3.9187,0.0559,0.6863,0.2169
9241.0,1.1477,-2.6622,-3.9187,0.0559,0.6863,0.2169
9246.0,1.8996,-0.2406,-4.6911,0.0559,0.6863,0.2169
9252.0,1.8996,-0.2406,-4.6911,0.0559,0.6863,0.2169
9257.0,1.8996,-0.2406,-4.6911,0.0559,0.6863,0.2169
9262.0,1.8996,-0.2406,-4.6911,0.0559,0.6863,0.2169
9266.0,1.8996,-0.2406,-4.6911,-0.3082,0.6704,1.4924
9271.0,1.8996,-0.2406,-4.6911,-0.3082,0.6704,1.4924
9276.0,0.4101,0.4697,-6.6389,-0.3082,0.6704,1.4924
9281.0,0.4101,0.4697,-6.6389,-0.3082,0.6704,1.4924
9286.0,0.4101,0.4697,-6.6389,-0.3082,0.6704,1.4924
9291.0,0.4101,0.4697,-6.6389,-0.3082,0.6704,1.4924
9297.0,0.4101,0.4697,-6.6389,0.412,0.6179,2.4185
9301.0,-5.0256,-5.5699,-8.0748,0.412,0.6179,2.4185
9306.0,-5.0256,-5.5699,-8.0748,0.412,0.6179,2.4185
9311.0,-5.0256,-5.5699,-8.0748,0.412,0.6179,2.4185
9316.0,-5.0256,-5.5699,-8.0748,0.412,0.6179,2.4185
9322.0,-5.0256,-5.5699,-8.0748,0.412,0.6179,2.4185
9327.0,-5.0256,-5.5699,-8.0748,0.412,0.6179,2.4185
9332.0,-3.3638,-5.5175,-9.4586,0.4884,1.5372,2.8589
9336.0,-3.3638,-5.5175,-9.4586,0.4884,1.5372,2.8589
9341.0,-3.3638,-5.5175,-9.4586,0.4884,1.5372,2.8589
9347.0,-3.3638,-5.5175,-9.4586,0.4884,1.5372,2.8589
9352.0,-3.3638,-5.5175,-9.4586,0.4884,1.5372,2.8589
9357.0,3.7386,-5.6176,-9.3402,0.4884,1.5372,2.8589
9361.0,3.7386,-5.6176,-9.3402,-1.1157,-0.3143,3.4496
9366.0,3.7386,-5.6176,-9.3402,-1.1157,-0.3143,3.4496
9372.0,3.7386,-5.6176,-9.3402,-1.1157,-0.3143,3.4496
9376.0,3.7386,-5.6176,-9.3402,-1.1157,-0.3143,3.4496
9381.0,14.6772,-12.4436,-10.3022,-1.1157,-0.3143,3.4496
9386.0,14.6772,-12.4436,-10.3022,-1.1157,-0.3143,3.4496
9392.0,14.6772,-12.4436,-10.3022,-2.4242,0.4786,1.8455
9397.0,14.6772,-12.4436,-10.3022,-2.4242,0.4786,1.8455
9402.0,14.6772,-12.4436,-10.3022,-2.4242,0.4786,1.8455
9406.0,15.1466,-27.5306,-15.8042,-2.4242,0.4786,1.8455
9411.0,15.1466,-27.5306,-15.8042,-2.4242,0.4786,1.8455
9416.0,15.1466,-27.5306,-15.8042,-2.4242,0.4786,1.8455
9421.0,15.1466,-27.5306,-15.8042,-0.4639,-0.1109,0.7087
9435.0,4.4187,-6.2086,-1.9093,-0.4639,-0.1109,0.7087
9436.0,4.4187,-6.2086,-1.9093,-0.4639,-0.1109,0.7087
9436.0,4.4187,-6.2086,-1.9093,-0.4639,-0.1109,0.7087
9442.0,4.4187,-6.2086,-1.9093,-0.4639,-0.1109,0.7087
9447.0,4.4187,-6.2086,-1.9093,-0.4639,-0.1109,0.7087
9452.0,4.4187,-6.2086,-1.9093,-0.6203,0.043,2.0501
9456.0,4.4187,-6.2086,-1.9093,-0.6203,0.043,2.0501
9461.0,1.2099,-0.1071,0.3891,-0.6203,0.043,2.0501
9466.0,1.2099,-0.1071,0.3891,-0.6203,0.043,2.0501
9471.0,1.2099,-0.1071,0.3891,-0.6203,0.043,2.0501
9476.0,1.2099,-0.1071,0.3891,-0.6203,0.043,2.0501
9481.0,1.2099,-0.1071,0.3891,-1.131,-0.1879,3.1509
9486.0,0.64,-1.2321,-0.6677,-1.131,-0.1879,3.1509
9491.0,0.64,-1.2321,-0.6677,-1.131,-0.1879,3.1509
9496.0,0.64,-1.2321,-0.6677,-1.131,-0.1879,3.1509
9501.0,0.64,-1.2321,-0.6677,-1.131,-0.1879,3.1509
9506.0,0.64,-1.2321,-0.6677,-1.131,-0.1879,3.1509
9511.0,0.64,-1.2321,-0.6677,-1.131,-0.1879,3.1509
9517.0,3.9494,-7.8627,0.4792,-0.6667,-0.53,2.9377
9522.0,3.9494,-7.8627,0.4792,-0.6667,-0.53,2.9377
9527.0,3.9494,-7.8627,0.4792,-0.6667,-0.53,2.9377
9531.0,3.9494,-7.8627,0.4792,-0.6667,-0.53,2.9377
9536.0,3.9494,-7.8627,0.4792,-0.6667,-0.53,2.9377
9541.0,3.9494,-7.8627,0.4792,-0.3839,0.3992,2.0789
9547.0,8.8823,-17.0388,-1.4544,-0.3839,0.3992,2.0789
9551.0,8.8823,-17.0388,-1.4544,-0.3839,0.3992,2.0789
9556.0,8.8823,-17.0388,-1.4544,-0.3839,0.3992,2.0789
9561.0,8.8823,-17.0388,-1.4544,-0.3839,0.3992,2.0789
9566.0,8.8823,-17.0388,-1.4544,-0.3839,0.3992,2.0789
9571.0,2.3354,-14.6793,-4.421,-0.3839,0.3992,2.0789
9576.0,2.3354,-14.6793,-4.421,-0.7767,1.6337,1.3134
9581.0,2.3354,-14.6793,-4.421,-0.7767,1.6337,1.3134
9586.0,2.3354,-14.6793,-4.421,-0.7767,1.6337,1.3134
9591.0,2.3354,-14.6793,-4.421,-0.7767,1.6337,1.3134
9597.0,1.1764,-7.5767,-2.6297,-0.7767,1.6337,1.3134
9601.0,1.1764,-7.5767,-2.6297,-0.7767,1.6337,1.3134
9606.0,1.1764,-7.5767,-2.6297,-0.4792,1.1628,1.4741
9611.0,1.1764,-7.5767,-2.6297,-0.4792,1.1628,1.4741
9616.0,1.1764,-7.5767,-2.6297,-0.4792,1.1628,1.4741
9621.0,1.1764,-7.5767,-2.6297,-0.4792,1.1628,1.4741
9626.0,1.1285,-6.9189,-0.8478,-0.4792,1.1628,1.4741
9631.0,1.1285,-6.9189,-0.8478,-0.4792,1.1628,1.4741
9636.0,1.1285,-6.9189,-0.8478,-0.2727,0.8231,1.2218
9642.0,1.1285,-6.9189,-0.8478,-0.2727,0.8231,1.2218
9647.0,1.1285,-6.9189,-0.8478,-0.2727,0.8231,1.2218
9651.0,1.5691,-6.4375,-0.2033,-0.2727,0.8231,1.2218
9656.0,1.5691,-6.4375,-0.2033,-0.2727,0.8231,1.2218
9661.0,1.5691,-6.4375,-0.2033,-0.2727,0.8231,1.2218
9666.0,1.5691,-6.4375,-0.2033,-0.2727,0.8231,1.2218
9672.0,1.5691,-6.4375,-0.2033,-0.387,1.5659,0.9964
9676.0,2.0097,-6.8093,-0.8383,-0.387,1.5659,0.9964
9681.0,2.0097,-6.8093,-0.8383,-0.387,1.5659,0.9964
9686.0,2.0097,-6.8093,-0.8383,-0.387,1.5659,0.9964
9691.0,2.0097,-6.8093,-0.8383,-0.387,1.5659,0.9964
9697.0,2.0097,-6.8093,-0.8383,-0.387,1.5659,0.9964
9701.0,2.1295,-7.0762,-1.9757,-0.3967,2.1157,0.9952
9706.0,2.1295,-7.0762,-1.9757,-0.3967,2.1157,0.9952
9711.0,2.1295,-7.0762,-1.9757,-0.3967,2.1157,0.9952
9717.0,2.1295,-7.0762,-1.9757,-0.3967,2.1157,0.9952
9721.0,2.1295,-7.0762,-1.9757,-0.3967,2.1157,0.9952
9726.0,2.1295,-7.0762,-1.9757,-0.3967,2.1157,0.9952
9731.0,2.1007,-9.6884,-0.3786,-0.3967,2.1157,0.9952
9737.0,2.1007,-9.6884,-0.3786,0.0577,1.7626,0.9665
9741.0,2.1007,-9.6884,-0.3786,0.0577,1.7626,0.9665
9746.0,2.1007,-9.6884,-0.3786,0.0577,1.7626,0.9665
9752.0,2.1007,-9.6884,-0.3786,0.0577,1.7626,0.9665
9756.0,1.4638,-8.9162,0.2991,0.0577,1.7626,0.9665
9761.0,1.4638,-8.9162,0.2991,0.0577,1.7626,0.9665
9766.0,1.4638,-8.9162,0.2991,0.442,0.853,0.8944
9771.0,1.4638,-8.9162,0.2991,0.442,0.853,0.8944
9776.0,1.4638,-8.9162,0.2991,0.442,0.853,0.8944
9781.0,1.5931,-7.2526,0.1237,0.442,0.853,0.8944
9786.0,1.5931,-7.2526,0.1237,0.442,0.853,0.8944
9791.0,1.5931,-7.2526,0.1237,0.442,0.853,0.8944
9796.0,1.5931,-7.2526,0.1237,0.6869,0.4022,0.7801
9801.0,1.5931,-7.2526,0.1237,0.6869,0.4022,0.7801
9806.0,1.5931,-7.2526,0.1237,0.6869,0.4022,0.7801
9811.0,3.1735,-9.5549,1.0431,0.6869,0.4022,0.7801
9816.0,3.1735,-9.5549,1.0431,0.6869,0.4022,0.7801
9821.0,3.1735,-9.5549,1.0431,0.6869,0.4022,0.7801
9826.0,3.1735,-9.5549,1.0431,1.0602,1.1695,1.6616
9831.0,3.1735,-9.5549,1.0431,1.0602,1.1695,1.6616
9836.0,10.6399,-12.3197,-18.8467,1.0602,1.1695,1.6616
9841.0,10.6399,-12.3197,-18.8467,1.0602,1.1695,1.6616
9846.0,10.6399,-12.3197,-18.8467,1.0602,1.1695,1.6616
9851.0,10.6399,-12.3197,-18.8467,1.0602,1.1695,1.6616
9856.0,10.6399,-12.3197,-18.8467,0.0993,-1.778,-0.0335
9861.0,10.6399,-12.3197,-18.8467,0.0993,-1.778,-0.0335
9866.0,4.5049,-10.4463,-5.9612,0.0993,-1.778,-0.0335
9871.0,4.5049,-10.4463,-5.9612,0.0993,-1.778,-0.0335
9876.0,4.5049,-10.4463,-5.9612,0.0993,-1.778,-0.0335
9881.0,4.5049,-10.4463,-5.9612,0.0993,-1.778,-0.0335
9886.0,4.5049,-10.4463,-5.9612,0.0993,-1.778,-0.0335
9892.0,2.9484,-11.7238,2.6544,0.142,-3.4304,0.9035
9896.0,2.9484,-11.7238,2.6544,0.142,-3.4304,0.9035
9901.0,2.9484,-11.7238,2.6544,0.142,-3.4304,0.9035
9906.0,2.9484,-11.7238,2.6544,0.142,-3.4304,0.9035
9911.0,2.9484,-11.7238,2.6544,0.142,-3.4304,0.9035
9916.0,2.9484,-11.7238,2.6544,0.142,-3.4304,0.9035
9921.0,2.9484,-11.7238,2.6544,0.4359,-1.2337,0.6867
9926.0,2.8191,-11.5665,3.9245,0.4359,-1.2337,0.6867
9931.0,2.8191,-11.5665,3.9245,0.4359,-1.2337,0.6867
9936.0,2.8191,-11.5665,3.9245,0.4359,-1.2337,0.6867
9948.0,2.8191,-11.5665,3.9245,0.1548,2.6643,0.4814
9950.0,3.3124,-11.476,2.0099,0.1548,2.6643,0.4814
9951.0,3.3124,-11.476,2.0099,0.1548,2.6643,0.4814
9956.0,3.3124,-11.476,2.0099,0.1548,2.6643,0.4814
9961.0,3.3124,-11.476,2.0099,0.1548,2.6643,0.4814
9966.0,3.3124,-11.476,2.0099,0.1548,2.6643,0.4814
9971.0,3.3124,-11.476,2.0099,0.1548,2.6643,0.4814
9976.0,4.5528,-12.1624,1.2374,0.1548,2.6643,0.4814
9981.0,4.5528,-12.1624,1.2374,0.1628,3.3979,0.0532
9986.0,4.5528,-12.1624,1.2374,0.1628,3.3979,0.0532
9991.0,4.5528,-12.1624,1.2374,0.1628,3.3979,0.0532
9996.0,4.5528,-12.1624,1.2374,0.1628,3.3979,0.0532
10001.0,4.5528,-12.1624,1.2374,0.1628,3.3979,0.0532
10006.0,6.5786,-13.5019,-14.4394,0.1628,3.3979,0.0532
10012.0,6.5786,-13.5019,-14.4394,-0.0577,0.8524,-1.7946
10016.0,6.5786,-13.5019,-14.4394,-0.0577,0.8524,-1.7946
10021.0,6.5786,-13.5019,-14.4394,-0.0577,0.8524,-1.7946
10026.0,6.5786,-13.5019,-14.4394,-0.0577,0.8524,-1.7946
10031.0,6.5834,-13.335,0.6166,-0.0577,0.8524,-1.7946
10036.0,6.5834,-13.335,0.6166,-0.0577,0.8524,-1.7946
10041.0,6.5834,-13.335,0.6166,-0.0577,0.8524,-1.7946
10046.0,6.5834,-13.335,0.6166,-0.1268,-1.1085,-1.7048
10051.0,6.5834,-13.335,0.6166,-0.1268,-1.1085,-1.7048
10056.0,5.0557,-12.334,1.9388,-0.1268,-1.1085,-1.7048
10061.0,5.0557,-12.334,1.9388,-0.1268,-1.1085,-1.7048
10066.0,5.0557,-12.334,1.9388,-0.1268,-1.1085,-1.7048
10071.0,5.0557,-12.334,1.9388,-0.1268,-1.1085,-1.7048
10076.0,5.0557,-12.334,1.9388,0.0681,-1.406,-1.4379
10081.0,5.0557,-12.334,1.9388,0.0681,-1.406,-1.4379
10087.0,5.5968,-8.5634,1.2943,0.0681,-1.406,-1.4379
10091.0,5.5968,-8.5634,1.2943,0.0681,-1.406,-1.4379
10096.0,5.5968,-8.5634,1.2943,0.0681,-1.406,-1.4379
10101.0,5.5968,-8.5634,1.2943,0.0681,-1.406,-1.4379
10106.0,5.5968,-8.5634,1.2943,-0.3815,-1.0663,-1.047
10111.0,5.5968,-8.5634,1.2943,-0.3815,-1.0663,-1.047
10117.0,6.1812,-9.9601,-2.7007,-0.3815,-1.0663,-1.047
10122.0,6.1812,-9.9601,-2.7007,-0.3815,-1.0663,-1.047
10126.0,6.1812,-9.9601,-2.7007,-0.3815,-1.0663,-1.047
10131.0,6.1812,-9.9601,-2.7007,-0.3815,-1.0663,-1.047
10136.0,6.1812,-9.9601,-2.7007,-0.1787,-0.6711,-3.9987
10141.0,4.3229,-12.5866,-9.4065,-0.1787,-0.6711,-3.9987
10147.0,4.3229,-12.5866,-9.4065,-0.1787,-0.6711,-3.9987
10151.0,4.3229,-12.5866,-9.4065,-0.1787,-0.6711,-3.9987
10156.0,4.3229,-12.5866,-9.4065,-0.1787,-0.6711,-3.9987
10161.0,4.3229,-12.5866,-9.4065,-0.1787,-0.6711,-3.9987
10166.0,2.6227,-11.9812,-5.0181,-0.1787,-0.6711,-3.9987
10171.0,2.6227,-11.9812,-5.0181,-0.1915,-2.5202,-4.8331
10176.0,2.6227,-11.9812,-5.0181,-0.1915,-2.5202,-4.8331
10181.0,2.6227,-11.9812,-5.0181,-0.1915,-2.5202,-4.8331
10186.0,2.6227,-11.9812,-5.0181,-0.1915,-2.5202,-4.8331
10191.0,2.6227,-11.9812,-5.0181,-0.1915,-2.5202,-4.8331
10196.0,4.0404,-9.8696,1.3985,-0.1915,-2.5202,-4.8331
10201.0,4.0404,-9.8696,1.3985,-0.69,-2.9148,-2.3463
10207.0,4.0404,-9.8696,1.3985,-0.69,-2.9148,-2.3463
10211.0,4.0404,-9.8696,1.3985,-0.69,-2.9148,-2.3463
10216.0,4.0404,-9.8696,1.3985,-0.69,-2.9148,-2.3463
10222.0,3.935,-9.8934,5.1898,-0.69,-2.9148,-2.3463
10226.0,3.935,-9.8934,5.1898,-0.69,-2.9148,-2.3463
10231.0,3.935,-9.8934,5.1898,0.1835,-2.9906,-0.6969
10237.0,3.935,-9.8934,5.1898,0.1835,-2.9906,-0.6969
10242.0,3.935,-9.8934,5.1898,0.1835,-2.9906,-0.6969
10246.0,4.3612,-8.2631,4.4173,0.1835,-2.9906,-0.6969
10251.0,4.3612,-8.2631,4.4173,0.1835,-2.9906,-0.6969
10257.0,4.3612,-8.2631,4.4173,0.1835,-2.9906,-0.6969
10262.0,4.3612,-8.2631,4.4173,0.514,-1.7108,-0.6151
10266.0,4.3612,-8.2631,4.4173,0.514,-1.7108,-0.6151
10271.0,-2.2958,-13.0871,-10.3164,0.514,-1.7108,-0.6151
10277.0,-2.2958,-13.0871,-10.3164,0.514,-1.7108,-0.6151
10281.0,-2.2958,-13.0871,-10.3164,0.514,-1.7108,-0.6151
10286.0,-2.2958,-13.0871,-10.3164,0.514,-1.7108,-0.6151
10291.0,-2.2958,-13.0871,-10.3164,0.514,-1.7108,-0.6151
10296.0,-2.2958,-13.0871,-10.3164,1.6118,-0.1115,-3.6725
10301.0,1.9379,-9.2689,-3.1131,1.6118,-0.1115,-3.6725
10306.0,1.9379,-9.2689,-3.1131,1.6118,-0.1115,-3.6725
10311.0,1.9379,-9.2689,-3.1131,1.6118,-0.1115,-3.6725
10316.0,1.9379,-9.2689,-3.1131,1.6118,-0.1115,-3.6725
10322.0,1.9379,-9.2689,-3.1131,1.6118,-0.1115,-3.6725
10326.0,3.7961,-6.9999,-3.895,1.2086,1.3155,-4.6749
10331.0,3.7961,-6.9999,-3.895,1.2086,1.3155,-4.6749
10336.0,3.7961,-6.9999,-3.895,1.2086,1.3155,-4.6749
10341.0,3.7961,-6.9999,-3.895,1.2086,1.3155,-4.6749
10346.0,3.7961,-6.9999,-3.895,1.2086,1.3155,-4.6749
10352.0,3.7961,-6.9999,-3.895,1.2086,1.3155,-4.6749
10356.0,3.8057,-5.1456,-3.1178,0.7474,0.1304,-3.9883
10361.0,3.8057,-5.1456,-3.1178,0.7474,0.1304,-3.9883
10366.0,3.8057,-5.1456,-3.1178,0.7474,0.1304,-3.9883
10371.0,3.8057,-5.1456,-3.1178,0.7474,0.1304,-3.9883
10376.0,3.8057,-5.1456,-3.1178,0.7474,0.1304,-3.9883
10381.0,2.7569,-2.9958,-0.8194,0.7474,0.1304,-3.9883
10386.0,2.7569,-2.9958,-0.8194,0.7474,0.1304,-3.9883
10391.0,2.7569,-2.9958,-0.8194,0.5482,-0.577,-2.3841
10397.0,2.7569,-2.9958,-0.8194,0.5482,-0.577,-2.3841
10401.0,2.7569,-2.9958,-0.8194,0.5482,-0.577,-2.3841
10406.0,2.7569,-2.9958,-0.8194,0.5482,-0.577,-2.3841
10411.0,0.8172,-1.6277,-1.0042,0.5482,-0.577,-2.3841
10416.0,0.8172,-1.6277,-1.0042,0.5482,-0.577,-2.3841
10421.0,0.8172,-1.6277,-1.0042,0.5482,-0.577,-2.3841
10426.0,0.8172,-1.6277,-1.0042,0.6075,-0.1421,-1.2992
10431.0,0.8172,-1.6277,-1.0042,0.6075,-0.1421,-1.2992
10436.0,0.8172,-1.6277,-1.0042,0.6075,-0.1421,-1.2992
10441.0,0.5826,-1.4275,-2.3548,0.6075,-0.1421,-1.2992
10446.0,0.5826,-1.4275,-2.3548,0.6075,-0.1421,-1.2992
10451.0,0.5826,-1.4275,-2.3548,0.6075,-0.1421,-1.2992
10457.0,0.5826,-1.4275,-2.3548,0.3393,0.6368,-0.7171
10461.0,0.5826,-1.4275,-2.3548,0.3393,0.6368,-0.7171
10466.0,1.1381,-2.419,-3.2647,0.3393,0.6368,-0.7171
10471.0,1.1381,-2.419,-3.2647,0.3393,0.6368,-0.7171
10476.0,1.1381,-2.419,-3.2647,0.3393,0.6368,-0.7171
10481.0,1.1381,-2.419,-3.2647,0.3393,0.6368,-0.7171
10486.0,1.1381,-2.419,-3.2647,0.04,0.9856,0.3024
10491.0,2.163,-0.9318,-4.4968,0.04,0.9856,0.3024
10496.0,2.163,-0.9318,-4.4968,0.04,0.9856,0.3024
10501.0,2.163,-0.9318,-4.4968,0.04,0.9856,0.3024
10506.0,2.163,-0.9318,-4.4968,0.04,0.9856,0.3024
10512.0,2.163,-0.9318,-4.4968,0.04,0.9856,0.3024
10516.0,2.163,-0.9318,-4.4968,0.04,0.9856,0.3024
10521.0,1.9187,0.1836,-5.8522,-0.2111,1.1011,1.7539
10526.0,1.9187,0.1836,-5.8522,-0.2111,1.1011,1.7539
10531.0,1.9187,0.1836,-5.8522,-0.2111,1.1011,1.7539
10536.0,1.9187,0.1836,-5.8522,-0.2111,1.1011,1.7539
10541.0,1.9187,0.1836,-5.8522,-0.2111,1.1011,1.7539
10546.0,-1.6205,-2.6431,-9.2122,-0.2111,1.1011,1.7539
10551.0,-1.6205,-2.6431,-9.2122,-0.2795,1.5244,2.9115
10556.0,-1.6205,-2.6431,-9.2122,-0.2795,1.5244,2.9115
10561.0,-1.6205,-2.6431,-9.2122,-0.2795,1.5244,2.9115
10566.0,-1.6205,-2.6431,-9.2122,-0.2795,1.5244,2.9115
10571.0,-1.6205,-2.6431,-9.2122,-0.2795,1.5244,2.9115
10576.0,-2.7843,-5.4269,-11.9609,-0.2795,1.5244,2.9115
10581.0,-2.7843,-5.4269,-11.9609,-0.4554,0.1475,3.559
10586.0,-2.7843,-5.4269,-11.9609,-0.4554,0.1475,3.559
10591.0,-2.7843,-5.4269,-11.9609,-0.4554,0.1475,3.559
10596.0,-2.7843,-5.4269,-11.9609,-0.4554,0.1475,3.559
10601.0,8.0058,-10.2604,-7.2455,-0.4554,0.1475,3.559
10606.0,8.0058,-10.2604,-7.2455,-0.4554,0.1475,3.559
10611.0,8.0058,-10.2604,-7.2455,-0.4554,0.1475,3.559
10616.0,8.0058,-10.2604,-7.2455,-1.5195,-1.5764,2.5584
10621.0,8.0058,-10.2604,-7.2455,-1.5195,-1.5764,2.5584
10626.0,8.0058,-10.2604,-7.2455,-1.5195,-1.5764,2.5584
10632.0,21.0804,-24.0699,-7.3355,-1.5195,-1.5764,2.5584
10637.0,21.0804,-24.0699,-7.3355,-1.5195,-1.5764,2.5584
10641.0,21.0804,-24.0699,-7.3355,-1.6154,-1.0394,1.8064
10646.0,21.0804,-24.0699,-7.3355,-1.6154,-1.0394,1.8064
10651.0,21.0804,-24.0699,-7.3355,-1.6154,-1.0394,1.8064
10656.0,11.6409,-16.095,-6.7195,-1.6154,-1.0394,1.8064
10661.0,11.6409,-16.095,-6.7195,-1.6154,-1.0394,1.8064
10666.0,11.6409,-16.095,-6.7195,-1.6154,-1.0394,1.8064
10671.0,11.6409,-16.095,-6.7195,-1.6154,-1.0394,1.8064
10676.0,11.6409,-16.095,-6.7195,-0.4536,-0.0632,1.9842
10681.0,1.7272,-0.8222,-0.0137,-0.4536,-0.0632,1.9842
10687.0,1.7272,-0.8222,-0.0137,-0.4536,-0.0632,1.9842
10692.0,1.7272,-0.8222,-0.0137,-0.4536,-0.0632,1.9842
10696.0,1.7272,-0.8222,-0.0137,-0.4536,-0.0632,1.9842
10701.0,1.7272,-0.8222,-0.0137,-0.4536,-0.0632,1.9842
10706.0,-0.1358,-0.0928,-0.1132,-1.1268,-0.6118,3.3061
10712.0,-0.1358,-0.0928,-0.1132,-1.1268,-0.6118,3.3061
10716.0,-0.1358,-0.0928,-0.1132,-1.1268,-0.6118,3.3061
10721.0,-0.1358,-0.0928,-0.1132,-1.1268,-0.6118,3.3061
10726.0,-0.1358,-0.0928,-0.1132,-1.1268,-0.6118,3.3061
10732.0,-0.1358,-0.0928,-0.1132,-1.1268,-0.6118,3.3061
10736.0,1.3057,-4.2018,1.8488,-0.9276,-0.8604,3.391
10741.0,1.3057,-4.2018,1.8488,-0.9276,-0.8604,3.391
10746.0,1.3057,-4.2018,1.8488,-0.9276,-0.8604,3.391
10752.0,1.3057,-4.2018,1.8488,-0.9276,-0.8604,3.391
10757.0,1.3057,-4.2018,1.8488,-0.9276,-0.8604,3.391
10761.0,5.4436,-12.1052,2.6023,-0.9276,-0.8604,3.391
10766.0,5.4436,-12.1052,2.6023,-0.2062,0.4364,2.132
10771.0,5.4436,-12.1052,2.6023,-0.2062,0.4364,2.132
10776.0,5.4436,-12.1052,2.6023,-0.2062,0.4364,2.132
10781.0,5.4436,-12.1052,2.6023,-0.2062,0.4364,2.132
10786.0,5.4867,-20.8761,-0.9662,-0.2062,0.4364,2.132
10791.0,5.4867,-20.8761,-0.9662,-0.2062,0.4364,2.132
10797.0,5.4867,-20.8761,-0.9662,-0.2062,0.4364,2.132
10801.0,5.4867,-20.8761,-0.9662,-0.7731,1.9874,1.446
10807.0,5.4867,-20.8761,-0.9662,-0.7731,1.9874,1.446
10811.0,5.4867,-20.8761,-0.9662,-0.7731,1.9874,1.446
10816.0,-1.8552,-11.0184,-8.8426,-0.7731,1.9874,1.446
10821.0,-1.8552,-11.0184,-8.8426,-0.7731,1.9874,1.446
10827.0,-1.8552,-11.0184,-8.8426,-0.7731,1.9874,1.446
10831.0,-1.8552,-11.0184,-8.8426,-0.4035,0.6313,1.2749
10836.0,-1.8552,-11.0184,-8.8426,-0.4035,0.6313,1.2749
10841.0,0.8603,-8.5921,-1.3785,-0.4035,0.6313,1.2749
10846.0,0.8603,-8.5921,-1.3785,-0.4035,0.6313,1.2749
10851.0,0.8603,-8.5921,-1.3785,-0.4035,0.6313,1.2749
10856.0,0.8603,-8.5921,-1.3785,-0.4035,0.6313,1.2749
10861.0,0.8603,-8.5921,-1.3785,0.0522,1.0088,0.6897
10866.0,1.9427,-5.8654,-0.1843,0.0522,1.0088,0.6897
10871.0,1.9427,-5.8654,-0.1843,0.0522,1.0088,0.6897
10876.0,1.9427,-5.8654,-0.1843,0.0522,1.0088,0.6897
10881.0,1.9427,-5.8654,-0.1843,0.0522,1.0088,0.6897
10886.0,1.9427,-5.8654,-0.1843,0.0522,1.0088,0.6897
10891.0,1.9427,-5.8654,-0.1843,0.0522,1.0088,0.6897
10896.0,3.3268,-5.2458,-0.7246,0.1671,2.4431,0.5859
10903.0,3.3268,-5.2458,-0.7246,0.1671,2.4431,0.5859
10906.0,3.3268,-5.2458,-0.7246,0.1671,2.4431,0.5859
10911.0,3.3268,-5.2458,-0.7246,0.1671,2.4431,0.5859
10916.0,3.3268,-5.2458,-0.7246,0.1671,2.4431,0.5859
10921.0,4.1026,-6.2277,-2.7576,0.1671,2.4431,0.5859
10926.0,4.1026,-6.2277,-2.7576,-0.2398,2.2587,0.2927
10931.0,4.1026,-6.2277,-2.7576,-0.2398,2.2587,0.2927
10936.0,4.1026,-6.2277,-2.7576,-0.2398,2.2587,0.2927
10941.0,4.1026,-6.2277,-2.7576,-0.2398,2.2587,0.2927
10946.0,2.6898,-8.4204,-0.843,-0.2398,2.2587,0.2927
10951.0,2.6898,-8.4204,-0.843,-0.2398,2.2587,0.2927
10957.0,2.6898,-8.4204,-0.843,-0.026,1.2874,0.3495
10961.0,2.6898,-8.4204,-0.843,-0.026,1.2874,0.3495
10966.0,2.6898,-8.4204,-0.843,-0.026,1.2874,0.3495
10971.0,2.6898,-8.4204,-0.843,-0.026,1.2874,0.3495
10976.0,1.8277,-8.1535,0.4365,-0.026,1.2874,0.3495
10982.0,1.8277,-8.1535,0.4365,-0.026,1.2874,0.3495
10986.0,1.8277,-8.1535,0.4365,-0.026,1.2874,0.3495
10992.0,1.8277,-8.1535,0.4365,0.1182,0.5659,0.7038
10996.0,1.8277,-8.1535,0.4365,0.1182,0.5659,0.7038
11001.0,1.0471,-7.939,0.5739,0.1182,0.5659,0.7038
11006.0,1.0471,-7.939,0.5739,0.1182,0.5659,0.7038
11011.0,1.0471,-7.939,0.5739,0.1182,0.5659,0.7038
11016.0,1.0471,-7.939,0.5739,0.1182,0.5659,0.7038
11021.0,1.0471,-7.939,0.5739,0.4914,0.1695,0.9964
11027.0,1.7272,-8.654,0.8583,0.4914,0.1695,0.9964
11032.0,1.7272,-8.654,0.8583,0.4914,0.1695,0.9964
11036.0,1.7272,-8.654,0.8583,0.4914,0.1695,0.9964
11041.0,1.7272,-8.654,0.8583,0.4914,0.1695,0.9964
11046.0,1.7272,-8.654,0.8583,0.4914,0.1695,0.9964
11051.0,1.7272,-8.654,0.8583,0.4914,0.1695,0.9964
11056.0,3.0107,-10.1794,1.3464,0.7822,0.9642,1.4155
11061.0,3.0107,-10.1794,1.3464,0.7822,0.9642,1.4155
11066.0,3.0107,-10.1794,1.3464,0.7822,0.9642,1.4155
11071.0,3.0107,-10.1794,1.3464,0.7822,0.9642,1.4155
11076.0,3.0107,-10.1794,1.3464,0.7822,0.9642,1.4155
11081.0,5.8794,-11.7715,1.0384,0.7822,0.9642,1.4155
11086.0,5.8794,-11.7715,1.0384,0.6356,1.3191,2.5132
11092.0,5.8794,-11.7715,1.0384,0.6356,1.3191,2.5132
11096.0,5.8794,-11.7715,1.0384,0.6356,1.3191,2.5132
11101.0,5.8794,-11.7715,1.0384,0.6356,1.3191,2.5132
11106.0,5.8794,-11.7715,1.0384,0.6356,1.3191,2.5132
11112.0,8.6763,-11.3044,-11.9893,0.6356,1.3191,2.5132
11117.0,8.6763,-11.3044,-11.9893,-0.2172,1.58,-0.2614
11121.0,8.6763,-11.3044,-11.9893,-0.2172,1.58,-0.2614
11126.0,8.6763,-11.3044,-11.9893,-0.2172,1.58,-0.2614
