time in milliseconds,acceleration_x,acceleration_y,acceleration_z,Roll,Pitch,Yaw
6.0,-4.1532,1.4575,8.8293,0.0779,0.3602,0.1319
11.0,-4.1532,1.4575,8.8293,-0.208,0.4097,0.1172
16.0,-4.1532,1.4575,8.8293,-0.208,0.4097,0.1172
21.0,-4.1149,1.7673,8.3269,-0.208,0.4097,0.1172
26.0,-4.1149,1.7673,8.3269,-0.208,0.4097,0.1172
31.0,-4.1149,1.7673,8.3269,-0.208,0.4097,0.1172
36.0,-4.1149,1.7673,8.3269,-0.208,0.4097,0.1172
41.0,-4.1149,1.7673,8.3269,-0.445,0.1404,0.2712
46.0,-4.5555,2.0581,7.763,-0.445,0.1404,0.2712
51.0,-4.5555,2.0581,7.763,-0.445,0.1404,0.2712
56.0,-4.5555,2.0581,7.763,-0.445,0.1404,0.2712
62.0,-4.5555,2.0581,7.763,-0.445,0.1404,0.2712
66.0,-4.5555,2.0581,7.763,-0.445,0.1404,0.2712
71.0,-4.5411,2.2774,7.6492,-0.445,0.1404,0.2712
76.0,-4.5411,2.2774,7.6492,-0.6051,-0.3984,0.1344
81.0,-4.5411,2.2774,7.6492,-0.6051,-0.3984,0.1344
85.0,-4.5411,2.2774,7.6492,-0.6051,-0.3984,0.1344
91.0,-4.5411,2.2774,7.6492,-0.6051,-0.3984,0.1344
96.0,-4.5411,2.2774,7.6492,-0.6051,-0.3984,0.1344
101.0,-4.8764,2.244,7.6161,-0.3851,-0.1999,-0.3916
106.0,-4.8764,2.244,7.6161,-0.3851,-0.1999,-0.3916
111.0,-4.8764,2.244,7.6161,-0.3851,-0.1999,-0.3916
116.0,-4.8764,2.244,7.6161,-0.3851,-0.1999,-0.3916
121.0,-4.8764,2.244,7.6161,-0.3851,-0.1999,-0.3916
126.0,-4.8812,1.8341,7.3554,-0.3851,-0.1999,-0.3916
131.0,-4.8812,1.8341,7.3554,-0.3851,-0.1999,-0.3916
136.0,-4.8812,1.8341,7.3554,-0.3247,-0.6861,-0.8217
141.0,-4.8812,1.8341,7.3554,-0.3247,-0.6861,-0.8217
146.0,-4.8812,1.8341,7.3554,-0.3247,-0.6861,-0.8217
151.0,-5.2883,0.895,6.7204,-0.3247,-0.6861,-0.8217
156.0,-5.2883,0.895,6.7204,-0.3247,-0.6861,-0.8217
161.0,-5.2883,0.895,6.7204,-0.3247,-0.6861,-0.8217
166.0,-5.2883,0.895,6.7204,-0.7193,-1.8718,-0.8809
171.0,-5.2883,0.895,6.7204,-0.7193,-1.8718,-0.8809
176.0,-4.9722,0.9808,7.0711,-0.7193,-1.8718,-0.8809
181.0,-4.9722,0.9808,7.0711,-0.7193,-1.8718,-0.8809
186.0,-4.9722,0.9808,7.0711,-0.7193,-1.8718,-0.8809
191.0,-4.9722,0.9808,7.0711,-0.7193,-1.8718,-0.8809
196.0,-4.9722,0.9808,7.0711,-1.0424,-1.7032,-0.6451
201.0,-4.9722,0.9808,7.0711,-1.0424,-1.7032,-0.6451
206.0,-3.7222,-0.0584,7.0,-1.0424,-1.7032,-0.6451
211.0,-3.7222,-0.0584,7.0,-1.0424,-1.7032,-0.6451
216.0,-3.7222,-0.0584,7.0,-1.0424,-1.7032,-0.6451
221.0,-3.7222,-0.0584,7.0,-1.0424,-1.7032,-0.6451
226.0,-3.7222,-0.0584,7.0,-1.4016,-0.0643,-0.1161
231.0,-3.7222,-0.0584,5.8152,-1.4016,-0.0643,-0.1161
236.0,-4.2634,-0.8449,5.8152,-1.4016,-0.0643,-0.1161
241.0,-4.2634,-0.8449,5.8152,-1.4016,-0.0643,-0.1161
246.0,-4.2634,-0.8449,5.8152,-1.4016,-0.0643,-0.1161
251.0,-4.2634,-0.8449,5.8152,-1.4016,-0.0643,-0.1161
256.0,-4.2634,-0.8449,5.8152,-0.5776,1.8575,0.3885
261.0,-6.8926,0.1514,4.7347,-0.5776,1.8575,0.3885
266.0,-6.8926,0.1514,4.7347,-0.5776,1.8575,0.3885
271.0,-6.8926,0.1514,4.7347,-0.5776,1.8575,0.3885
276.0,-6.8926,0.1514,4.7347,-0.5776,1.8575,0.3885
281.0,-6.8926,0.1514,4.7347,-0.5776,1.8575,0.3885
286.0,-5.3122,0.5661,3.6495,0.1286,2.2509,-0.2413
291.0,-5.3122,0.5661,3.6495,0.1286,2.2509,-0.2413
296.0,-5.3122,0.5661,3.6495,0.1286,2.2509,-0.2413
301.0,-5.3122,0.5661,3.6495,0.1286,2.2509,-0.2413
306.0,-5.3122,0.5661,3.6495,0.1286,2.2509,-0.2413
311.0,-5.3122,0.5661,3.6495,0.1286,2.2509,-0.2413
316.0,-3.2816,-1.4026,2.9576,0.1286,2.2509,-0.2413
321.0,-3.2816,-1.4026,2.9576,-0.8293,2.6199,-1.3116
326.0,-3.2816,-1.4026,2.9576,-0.8293,2.6199,-1.3116
331.0,-3.2816,-1.4026,2.9576,-0.8293,2.6199,-1.3116
336.0,-3.2816,-1.4026,2.9576,-0.8293,2.6199,-1.3116
341.0,-1.4712,-4.8204,1.479,-0.8293,2.6199,-1.3116
346.0,-1.4712,-4.8204,1.479,-0.8293,2.6199,-1.3116
351.0,-1.4712,-4.8204,1.479,-2.569,3.4134,-1.179
356.0,-1.4712,-4.8204,1.479,-2.569,3.4134,-1.179
361.0,-1.4712,-4.8204,1.479,-2.569,3.4134,-1.179
366.0,-1.4712,-4.8204,1.479,-2.569,3.4134,-1.179
371.0,-0.4703,-6.5412,0.5596,-2.569,3.4134,-1.179
376.0,-0.4703,-6.5412,0.5596,-2.569,3.4134,-1.179
381.0,-0.4703,-6.5412,0.5596,-2.569,3.4134,-1.179
386.0,-0.4703,-6.5412,0.5596,-2.9386,4.6394,-0.771
391.0,-0.4703,-6.5412,0.5596,-2.9386,4.6394,-0.771
396.0,1.8142,-6.6938,-0.3692,-2.9386,4.6394,-0.771
401.0,1.8142,-6.6938,-0.3692,-2.9386,4.6394,-0.771
406.0,1.8142,-6.6938,-0.3692,-2.9386,4.6394,-0.771
411.0,1.8142,-6.6938,-0.3692,-2.9386,4.6394,-0.771
416.0,1.8142,-6.6938,-0.3692,-3.3558,6.2295,-1.9878
421.0,3.4712,-8.5909,-1.1038,-3.3558,6.2295,-1.9878
426.0,3.4712,-8.5909,-1.1038,-3.3558,6.2295,-1.9878
431.0,3.4712,-8.5909,-1.1038,-3.3558,6.2295,-1.9878
436.0,3.4712,-8.5909,-1.1038,-3.3558,6.2295,-1.9878
441.0,3.4712,-8.5909,-1.1038,-3.3558,6.2295,-1.9878
446.0,3.4712,-8.5909,-1.1038,-5.3723,7.0401,-2.9469
451.0,1.6944,-14.3206,0.1189,-5.3723,7.0401,-2.9469
455.0,1.6944,-14.3206,0.1189,-5.3723,7.0401,-2.9469
461.0,1.6944,-14.3206,0.1189,-5.3723,7.0401,-2.9469
466.0,1.6944,-14.3206,0.1189,-5.3723,7.0401,-2.9469
471.0,1.6944,-14.3206,0.1189,-5.3723,7.0401,-2.9469
475.0,-3.2289,-20.5318,3.1756,-6.5006,7.4567,-2.0092
481.0,-3.2289,-20.5318,3.1756,-6.5006,7.4567,-2.0092
486.0,-3.2289,-20.5318,3.1756,-6.5006,7.4567,-2.0092
491.0,-3.2289,-20.5318,3.1756,-6.5006,7.4567,-2.0092
496.0,-3.2289,-20.5318,3.1756,-6.5006,7.4567,-2.0092
501.0,-3.2289,-20.5318,3.1756,-6.5006,7.4567,-2.0092
506.0,-10.1158,-24.2165,4.5878,-7.2153,7.3767,0.3274
511.0,-10.1158,-24.2165,4.5878,-7.2153,7.3767,0.3274
516.0,-10.1158,-24.2165,4.5878,-7.2153,7.3767,0.3274
521.0,-10.1158,-24.2165,4.5878,-7.2153,7.3767,0.3274
526.0,-10.1158,-24.2165,4.5878,-7.2153,7.3767,0.3274
531.0,-23.8082,-23.4252,5.8058,-7.2153,7.3767,0.3274
536.0,-23.8082,-23.4252,5.8058,-7.2153,7.3767,0.3274
541.0,-23.8082,-23.4252,5.8058,-5.2794,5.3847,3.2705
546.0,-23.8082,-23.4252,5.8058,-5.2794,5.3847,3.2705
551.0,-23.8082,-23.4252,5.8058,-5.2794,5.3847,3.2705
556.0,-28.401,-16.7326,1.2752,-5.2794,5.3847,3.2705
561.0,-28.401,-16.7326,1.2752,-5.2794,5.3847,3.2705
566.0,-28.401,-16.7326,1.2752,-5.2794,5.3847,3.2705
571.0,-28.401,-16.7326,1.2752,-3.3777,0.1416,3.4049
576.0,-28.401,-16.7326,1.2752,-3.3777,0.1416,3.4049
581.0,-28.401,-16.7326,1.2752,-3.3777,0.1416,3.4049
586.0,-25.7095,-12.1994,-0.0896,-3.3777,0.1416,3.4049
591.0,-25.7095,-12.1994,-0.0896,-3.3777,0.1416,3.4049
595.0,-25.7095,-12.1994,-0.0896,-3.3777,0.1416,3.4049
601.0,-25.7095,-12.1994,-0.0896,-2.3136,-2.7222,1.6694
606.0,-25.7095,-12.1994,-0.0896,-2.3136,-2.7222,1.6694
611.0,-22.3618,-9.8494,0.2231,-2.3136,-2.7222,1.6694
616.0,-22.3618,-9.8494,0.2231,-2.3136,-2.7222,1.6694
621.0,-22.3618,-9.8494,0.2231,-2.3136,-2.7222,1.6694
626.0,-22.3618,-9.8494,0.2231,-2.3136,-2.7222,1.6694
631.0,-22.3618,-9.8494,0.2231,0.354,-2.9219,1.7226
635.0,-22.3618,-9.8494,0.2231,0.354,-2.9219,1.7226
641.0,-18.3341,-9.2249,0.4933,0.354,-2.9219,1.7226
646.0,-18.3341,-9.2249,0.4933,0.354,-2.9219,1.7226
651.0,-18.3341,-9.2249,0.4933,0.354,-2.9219,1.7226
656.0,-18.3341,-9.2249,0.4933,0.354,-2.9219,1.7226
661.0,-18.3341,-9.2249,0.4933,0.354,-2.9219,1.7226
666.0,-10.0535,-2.9661,-7.0134,1.9753,-3.8786,0.9608
671.0,-10.0535,-2.9661,-7.0134,1.9753,-3.8786,0.9608
676.0,-10.0535,-2.9661,-7.0134,1.9753,-3.8786,0.9608
681.0,-10.0535,-2.9661,-7.0134,1.9753,-3.8786,0.9608
686.0,-10.0535,-2.9661,-7.0134,1.9753,-3.8786,0.9608
691.0,-10.0535,-2.9661,-7.0134,1.9753,-3.8786,0.9608
696.0,-0.6762,-6.3505,-5.1747,0.9234,-2.1345,-2.6189
700.0,-0.6762,-6.3505,-5.1747,0.9234,-2.1345,-2.6189
707.0,-0.6762,-6.3505,-5.1747,0.9234,-2.1345,-2.6189
715.0,-0.6762,-6.3505,-5.1747,0.9234,-2.1345,-2.6189
718.0,-0.6762,-6.3505,-5.1747,0.9234,-2.1345,-2.6189
721.0,3.2509,-10.102,-3.7814,0.9234,-2.1345,-2.6189
726.0,3.2509,-10.102,-3.7814,0.6375,1.0945,-0.6427
731.0,3.2509,-10.102,-3.7814,0.6375,1.0945,-0.6427
736.0,3.2509,-10.102,-3.7814,0.6375,1.0945,-0.6427
741.0,3.2509,-10.102,-3.7814,0.6375,1.0945,-0.6427
746.0,3.2509,-10.102,-3.7814,0.6375,1.0945,-0.6427
751.0,0.1379,-8.1762,-1.7057,0.6375,1.0945,-0.6427
756.0,0.1379,-8.1762,-1.7057,2.0138,3.48,1.0225
761.0,0.1379,-8.1762,-1.7057,2.0138,3.48,1.0225
766.0,0.1379,-8.1762,-1.7057,2.0138,3.48,1.0225
770.0,0.1379,-8.1762,-1.7057,2.0138,3.48,1.0225
776.0,0.1379,-8.1762,-1.7057,2.0138,3.48,1.0225
781.0,-4.8237,-10.7646,0.081,2.0138,3.48,1.0225
785.0,-4.8237,-10.7646,0.081,1.7395,3.7298,0.5589
791.0,-4.8237,-10.7646,0.081,1.7395,3.7298,0.5589
796.0,-4.8237,-10.7646,0.081,1.7395,3.7298,0.5589
801.0,-4.8237,-10.7646,0.081,1.7395,3.7298,0.5589
806.0,-10.8725,-10.1402,-0.3408,1.7395,3.7298,0.5589
811.0,-10.8725,-10.1402,-0.3408,1.7395,3.7298,0.5589
816.0,-10.8725,-10.1402,-0.3408,0.6833,1.6541,0.2724
821.0,-10.8725,-10.1402,-0.3408,0.6833,1.6541,0.2724
826.0,-10.8725,-10.1402,-0.3408,0.6833,1.6541,0.2724
831.0,-10.8725,-10.1402,-0.3408,0.6833,1.6541,0.2724
837.0,-12.0602,-8.4384,0.5359,0.6833,1.6541,0.2724
841.0,-12.0602,-8.4384,0.5359,0.6833,1.6541,0.2724
846.0,-12.0602,-8.4384,0.5359,0.1665,-0.1614,-0.333
851.0,-12.0602,-8.4384,0.5359,0.1665,-0.1614,-0.333
857.0,-12.0602,-8.4384,0.5359,0.1665,-0.1614,-0.333
861.0,-11.0736,-7.0036,0.6971,0.1665,-0.1614,-0.333
866.0,-11.0736,-7.0036,0.6971,0.1665,-0.1614,-0.333
873.0,-11.0736,-7.0036,0.6971,0.1665,-0.1614,-0.333
877.0,-11.0736,-7.0036,0.6971,0.384,-0.3434,-0.1063
881.0,-11.0736,-7.0036,0.6971,0.384,-0.3434,-0.1063
886.0,-11.0736,-7.0036,1.4932,0.384,-0.3434,-0.1063
891.0,-8.0564,-7.8378,1.4932,0.384,-0.3434,-0.1063
896.0,-8.0564,-7.8378,1.4932,0.384,-0.3434,-0.1063
901.0,-8.0564,-7.8378,1.4932,0.384,-0.3434,-0.1063
906.0,-8.0564,-7.8378,1.4932,0.384,-0.3434,-0.1063
911.0,-8.0564,-7.8378,1.4932,0.9209,0.7757,0.9547
916.0,-3.4923,-8.691,2.877,0.9209,0.7757,0.9547
921.0,-3.4923,-8.691,2.877,0.9209,0.7757,0.9547
926.0,-3.4923,-8.691,2.877,0.9209,0.7757,0.9547
931.0,-3.4923,-8.691,2.877,0.9209,0.7757,0.9547
936.0,-3.4923,-8.691,2.877,0.9209,0.7757,0.9547
941.0,-5.4798,-7.4898,4.2608,0.7536,1.4653,1.5992
946.0,-5.4798,-7.4898,4.2608,0.7536,1.4653,1.5992
951.0,-5.4798,-7.4898,4.2608,0.7536,1.4653,1.5992
956.0,-5.4798,-7.4898,4.2608,0.7536,1.4653,1.5992
961.0,-5.4798,-7.4898,4.2608,0.7536,1.4653,1.5992
966.0,-5.4798,-7.4898,4.2608,0.7536,1.4653,1.5992
971.0,-1.9981,-6.4935,2.8486,0.7536,1.4653,1.5992
976.0,-1.9981,-6.4935,2.8486,0.1433,0.9656,1.7818
981.0,-1.9981,-6.4935,2.8486,0.1433,0.9656,1.7818
987.0,-1.9981,-6.4935,2.8486,0.1433,0.9656,1.7818
991.0,-1.9981,-6.4935,2.8486,0.1433,0.9656,1.7818
996.0,-5.8438,-5.054,0.4127,0.1433,0.9656,1.7818
1001.0,-5.8438,-5.054,0.4127,0.1433,0.9656,1.7818
1006.0,-5.8438,-5.054,0.4127,0.6173,-0.0136,1.8197
1012.0,-5.8438,-5.054,0.4127,0.6173,-0.0136,1.8197
1016.0,-5.8438,-5.054,0.4127,0.6173,-0.0136,1.8197
1022.0,-3.521,-6.8892,2.2751,0.6173,-0.0136,1.8197
1026.0,-3.521,-6.8892,2.2751,0.6173,-0.0136,1.8197
1031.0,-3.521,-6.8892,2.2751,0.6173,-0.0136,1.8197
1036.0,-3.521,-6.8892,2.2751,-0.3594,0.3707,0.1612
1041.0,-3.521,-6.8892,2.2751,-0.3594,0.3707,0.1612
1046.0,-3.521,-6.8892,2.2751,-0.3594,0.3707,0.1612
1051.0,-7.1704,-9.0295,-0.5209,-0.3594,0.3707,0.1612
1056.0,-7.1704,-9.0295,-0.5209,-0.3594,0.3707,0.1612
1061.0,-7.1704,-9.0295,-0.5209,-0.3594,0.3707,0.1612
1065.0,-7.1704,-9.0295,-0.5209,0.1127,1.4427,-0.209
1071.0,-7.1704,-9.0295,-0.5209,0.1127,1.4427,-0.209
1076.0,-4.0766,-5.2446,4.1897,0.1127,1.4427,-0.209
1081.0,-4.0766,-5.2446,4.1897,0.1127,1.4427,-0.209
1086.0,-4.0766,-5.2446,4.1897,0.1127,1.4427,-0.209
1091.0,-4.0766,-5.2446,4.1897,0.1127,1.4427,-0.209
1096.0,-4.0766,-5.2446,4.1897,0.1127,1.4427,-0.209
1101.0,-4.0766,-5.2446,4.1897,-0.4419,2.4592,-0.4613
1106.0,-3.1618,-8.5147,2.7443,-0.4419,2.4592,-0.4613
1111.0,-3.1618,-8.5147,2.7443,-0.4419,2.4592,-0.4613
1116.0,-3.1618,-8.5147,2.7443,-0.4419,2.4592,-0.4613
1120.0,-3.1618,-8.5147,2.7443,-0.4419,2.4592,-0.4613
1126.0,-3.1618,-8.5147,2.7443,-0.4419,2.4592,-0.4613
1131.0,-4.0766,-8.6958,-1.4592,-0.3607,2.3688,-0.4344
1136.0,-4.0766,-8.6958,-1.4592,-0.3607,2.3688,-0.4344
1141.0,-4.0766,-8.6958,-1.4592,-0.3607,2.3688,-0.4344
1146.0,-4.0766,-8.6958,-1.4592,-0.3607,2.3688,-0.4344
1151.0,-4.0766,-8.6958,-1.4592,-0.3607,2.3688,-0.4344
1156.0,-4.7758,-7.7663,-2.6772,-0.3607,2.3688,-0.4344
1161.0,-4.7758,-7.7663,-2.6772,1.2392,0.9864,-0.3177
1166.0,-4.7758,-7.7663,-2.6772,1.2392,0.9864,-0.3177
1171.0,-4.7758,-7.7663,-2.6772,1.2392,0.9864,-0.3177
1176.0,-4.7758,-7.7663,-2.6772,1.2392,0.9864,-0.3177
1181.0,-4.7758,-7.7663,-2.6772,1.2392,0.9864,-0.3177
1186.0,-5.7672,-8.7196,-0.6631,1.2392,0.9864,-0.3177
1191.0,-5.7672,-8.7196,-0.6631,1.0236,0.8044,0.5742
1196.0,-5.7672,-8.7196,-0.6631,1.0236,0.8044,0.5742
1201.0,-5.7672,-8.7196,-0.6631,1.0236,0.8044,0.5742
1206.0,-5.7672,-8.7196,-0.6631,1.0236,0.8044,0.5742
1211.0,-4.9195,-8.9103,-0.4545,1.0236,0.8044,0.5742
1216.0,-4.9195,-8.9103,-0.4545,1.0236,0.8044,0.5742
1221.0,-4.9195,-8.9103,-0.4545,0.7578,0.962,1.4886
1226.0,-4.9195,-8.9103,-0.4545,0.7578,0.962,1.4886
1231.0,-4.9195,-8.9103,-0.4545,0.7578,0.962,1.4886
1236.0,-4.9195,-8.9103,-0.4545,0.7578,0.962,1.4886
1241.0,-11.9932,-10.3118,2.2704,0.7578,0.962,1.4886
1246.0,-11.9932,-10.3118,2.2704,0.7578,0.962,1.4886
1250.0,-11.9932,-10.3118,2.2704,0.7578,0.962,1.4886
1256.0,-11.9932,-10.3118,2.2704,2.2007,1.7494,1.7061
1261.0,-11.9932,-10.3118,2.2704,2.2007,1.7494,1.7061
1266.0,-5.3888,-9.1391,-6.4495,2.2007,1.7494,1.7061
1271.0,-5.3888,-9.1391,-6.4495,2.2007,1.7494,1.7061
1276.0,-5.3888,-9.1391,-6.4495,2.2007,1.7494,1.7061
1281.0,-5.3888,-9.1391,-6.4495,2.2007,1.7494,1.7061
1286.0,-5.3888,-9.1391,-6.4495,4.5532,-0.9384,0.5363
1291.0,1.8381,-4.7489,3.223,4.5532,-0.9384,0.5363
1296.0,1.8381,-4.7489,3.223,4.5532,-0.9384,0.5363
1301.0,1.8381,-4.7489,3.223,4.5532,-0.9384,0.5363
1306.0,1.8381,-4.7489,3.223,4.5532,-0.9384,0.5363
1311.0,1.8381,-4.7489,3.223,4.5532,-0.9384,0.5363
1316.0,1.8381,-4.7489,3.223,3.4756,-1.2995,0.5436
1321.0,1.0192,-3.0233,7.2843,3.4756,-1.2995,0.5436
1326.0,1.0192,-3.0233,7.2843,3.4756,-1.2995,0.5436
1331.0,1.0192,-3.0233,7.2843,3.4756,-1.2995,0.5436
1337.0,1.0192,-3.0233,7.2843,3.4756,-1.2995,0.5436
1341.0,1.0192,-3.0233,7.2843,3.4756,-1.2995,0.5436
1346.0,-6.2317,-5.278,4.3414,0.4231,1.3847,0.4062
1351.0,-6.2317,-5.278,4.3414,0.4231,1.3847,0.4062
1356.0,-6.2317,-5.278,4.3414,0.4231,1.3847,0.4062
1361.0,-6.2317,-5.278,4.3414,0.4231,1.3847,0.4062
1366.0,-6.2317,-5.278,4.3414,0.4231,1.3847,0.4062
1371.0,-8.976,-6.2409,1.3131,0.4231,1.3847,0.4062
1376.0,-8.976,-6.2409,1.3131,-1.8139,1.4672,0.0574
1381.0,-8.976,-6.2409,1.3131,-1.8139,1.4672,0.0574
1386.0,-8.976,-6.2409,1.3131,-1.8139,1.4672,0.0574
1392.0,-8.976,-6.2409,1.3131,-1.8139,1.4672,0.0574
1396.0,-8.976,-6.2409,1.3131,-1.8139,1.4672,0.0574
1401.0,-8.157,-5.3924,-0.5161,-1.8139,1.4672,0.0574
1407.0,-8.157,-5.3924,-0.5161,-3.4071,-1.1614,-0.6201
1411.0,-8.157,-5.3924,-0.5161,-3.4071,-1.1614,-0.6201
1416.0,-8.157,-5.3924,-0.5161,-3.4071,-1.1614,-0.6201
1422.0,-5.408,-4.7346,2.242,-3.4071,-1.1614,-0.6201
1427.0,-5.408,-4.7346,2.242,-3.4071,-1.1614,-0.6201
1431.0,-5.408,-4.7346,2.242,-3.4071,-1.1614,-0.6201
1436.0,-5.408,-4.7346,2.242,-3.4071,-1.1614,-0.6201
1442.0,-5.408,-4.7346,2.242,-3.4071,-1.1614,-0.6201
1446.0,-5.408,-4.7346,2.242,-5.0717,-1.1614,-0.6201
1452.0,-3.7365,-3.9576,0.7587,-5.0717,-1.137,-1.1851
1456.0,-3.7365,-3.9576,0.7587,-5.0717,-1.137,-1.1851
1462.0,-3.7365,-3.9576,0.7587,-5.0717,-1.137,-1.1851
1466.0,-3.7365,-3.9576,0.7587,-5.0717,-1.137,-1.1851
1471.0,-3.7365,-3.9576,0.7587,-5.0717,-1.137,-1.1851
1476.0,-4.3448,-4.6059,-0.2982,-5.0717,-1.137,-1.1851
1481.0,-4.3448,-4.6059,-0.2982,-5.0717,-1.137,-1.1851
1486.0,-4.3448,-4.6059,-0.2982,-8.0289,0.8343,-1.3446
1492.0,-4.3448,-4.6059,-0.2982,-8.0289,0.8343,-1.3446
1496.0,-4.3448,-4.6059,-0.2982,-8.0289,0.8343,-1.3446
1502.0,-5.111,-8.0428,-5.7007,-8.0289,0.8343,-1.3446
1507.0,-5.111,-8.0428,-5.7007,-8.0289,0.8343,-1.3446
1512.0,-5.111,-8.0428,-5.7007,-8.0289,0.8343,-1.3446
1516.0,-5.111,-8.0428,-5.7007,-7.9495,-0.0466,0.0818
1521.0,-5.111,-8.0428,-5.7007,-7.9495,-0.0466,0.0818
1527.0,-5.111,-8.0428,-5.7007,-7.9495,-0.0466,0.0818
1531.0,-1.1983,-7.1514,-2.7577,-7.9495,-0.0466,0.0818
1536.0,-1.1983,-7.1514,-2.7577,-7.9495,-0.0466,0.0818
1541.0,-1.1983,-7.1514,-2.7577,-7.9495,-0.0466,0.0818
1546.0,-1.1983,-7.1514,-2.7577,-7.9495,-0.0466,0.0818
1551.0,-1.1983,-7.1514,-2.7577,-8.9299,-0.8254,0.6756
1556.0,1.6801,-3.0758,0.1947,-8.9299,-0.8254,0.6756
1561.0,1.6801,-3.0758,0.1947,-8.9299,-0.8254,0.6756
1566.0,1.6801,-3.0758,0.1947,-8.9299,-0.8254,0.6756
1571.0,1.6801,-3.0758,0.1947,-8.9299,-0.8254,0.6756
1577.0,1.6801,-3.0758,0.1947,-8.9263,-1.0197,0.5797
1581.0,1.0144,-4.0387,0.1568,-8.9263,-1.0197,0.5797
1586.0,1.0144,-4.0387,0.1568,-8.9263,-1.0197,0.5797
1592.0,1.0144,-4.0387,0.1568,-8.9263,-1.0197,0.5797
1597.0,1.0144,-4.0387,0.1568,-8.9263,-1.0197,0.5797
1601.0,1.0144,-4.0387,0.1568,-8.9263,-1.0197,0.5797
1606.0,1.0144,-4.0387,0.1568,-8.9263,-1.0197,0.5797
1611.0,2.3937,-6.5841,-0.0186,-8.9367,-0.702,0.185
1616.0,2.3937,-6.5841,-0.0186,-8.9367,-0.702,0.185
1621.0,2.3937,-6.5841,-0.0186,-8.9367,-0.702,0.185
1626.0,2.3937,-6.5841,-0.0186,-8.9367,-0.702,0.185
1631.0,2.3937,-6.5841,-0.0186,-8.9367,-0.702,0.185
1636.0,4.0699,-11.6036,2.2183,-8.9367,-0.702,0.185
1641.0,4.0699,-11.6036,2.2183,-4.1853,0.6144,-0.2682
1647.0,4.0699,-11.6036,2.2183,-4.1853,0.6144,-0.2682
1651.0,4.0699,-11.6036,2.2183,-4.1853,0.6144,-0.2682
1656.0,4.0699,-11.6036,2.2183,-4.1853,0.6144,-0.2682
1661.0,10.3581,-21.2325,3.8248,-4.1853,0.6144,-0.2682
1666.0,10.3581,-21.2325,3.8248,-4.1853,0.6144,-0.2682
1671.0,10.3581,-21.2325,3.8248,3.3913,3.392,-2.0043
1676.0,10.3581,-21.2325,3.8248,3.3913,3.392,-2.0043
1681.0,10.3581,-21.2325,3.8248,3.3913,3.392,-2.0043
1687.0,29.3235,-23.4777,7.2654,3.3913,3.392,-2.0043
1692.0,29.3235,-23.4777,7.2654,3.3913,3.392,-2.0043
1696.0,29.3235,-23.4777,7.2654,3.3913,3.392,-2.0043
1701.0,29.3235,-23.4777,7.2654,2.0712,6.0517,-2.303
1706.0,29.3235,-23.4777,7.2654,2.0712,6.0517,-2.303
1712.0,29.3235,-23.4777,7.2654,2.0712,6.0517,-2.303
1716.0,15.6407,-13.1432,5.3887,2.0712,6.0517,-2.303
1721.0,15.6407,-13.1432,5.3887,2.0712,6.0517,-2.303
1726.0,15.6407,-13.1432,5.3887,2.0712,6.0517,-2.303
1731.0,15.6407,-13.1432,5.3887,-0.7278,4.5985,0.072
1736.0,15.6407,-13.1432,5.3887,-0.7278,4.5985,0.072
1741.0,4.8553,-5.2399,1.569,-0.7278,4.5985,0.072
1746.0,4.8553,-5.2399,1.569,-0.7278,4.5985,0.072
1751.0,4.8553,-5.2399,1.569,-0.7278,4.5985,0.072
1756.0,4.8553,-5.2399,1.569,-0.7278,4.5985,0.072
1761.0,4.8553,-5.2399,1.569,-0.7278,4.5985,0.072
1766.0,2.5565,-0.6399,-1.8431,0.5508,2.3102,0.3738
1771.0,2.5565,-0.6399,-1.8431,0.5508,2.3102,0.3738
1776.0,2.5565,-0.6399,-1.8431,0.5508,2.3102,0.3738
1781.0,2.5565,-0.6399,-1.8431,0.5508,2.3102,0.3738
1786.0,2.5565,-0.6399,-1.8431,0.5508,2.3102,0.3738
1791.0,2.5565,-0.6399,-1.8431,0.7639,-1.8725,0.4984
1796.0,5.0277,-3.4333,-5.2694,0.7639,-1.8725,0.4984
1801.0,5.0277,-3.4333,-5.2694,0.7639,-1.8725,0.4984
1807.0,5.0277,-3.4333,-5.2694,0.7639,-1.8725,0.4984
1812.0,5.0277,-3.4333,-5.2694,0.7639,-1.8725,0.4984
1826.0,8.658,-8.958,2.8486,0.4182,-4.2011,0.9938
1826.0,8.658,-8.958,2.8486,0.4182,-4.2011,0.9938
1827.0,8.658,-8.958,2.8486,0.4182,-4.2011,0.9938
1831.0,8.658,-8.958,2.8486,0.4182,-4.2011,0.9938
1836.0,8.658,-8.958,2.8486,0.4182,-4.2011,0.9938
1841.0,8.658,-8.958,2.8486,0.4182,-4.2011,0.9938
1846.0,9.7356,-11.6226,2.2609,0.4182,-4.2011,0.9938
1852.0,9.7356,-11.6226,2.2609,0.4182,-4.2011,0.9938
1856.0,9.7356,-11.6226,2.2609,-0.1395,-2.5578,1.0965
1861.0,9.7356,-11.6226,2.2609,-0.1395,-2.5578,1.0965
1866.0,9.7356,-11.6226,2.2609,-0.1395,-2.5578,1.0965
1872.0,9.7356,-11.6226,2.2609,-0.1395,-2.5578,1.0965
1876.0,5.5641,-7.9951,-0.137,-0.1395,-2.5578,1.0965
1881.0,5.5641,-7.9951,-0.137,-0.1395,-2.5578,1.0965
1886.0,5.5641,-7.9951,-0.137,-0.401,-1.0704,0.6481
1891.0,5.5641,-7.9951,-0.137,-0.401,-1.0704,0.6481
1896.0,5.5641,-7.9951,-0.137,-0.401,-1.0704,0.6481
1901.0,4.6446,-7.0751,1.3084,-0.401,-1.0704,0.6481
1906.0,4.6446,-7.0751,1.3084,-0.401,-1.0704,0.6481
1911.0,4.6446,-7.0751,1.3084,-0.401,-1.0704,0.6481
1916.0,4.6446,-7.0751,1.3084,-0.1878,0.5136,-0.0764
1921.0,4.6446,-7.0751,1.3084,-0.1878,0.5136,-0.0764
1926.0,5.1283,-7.4278,1.242,-0.1878,0.5136,-0.0764
1931.0,5.1283,-7.4278,1.242,-0.1878,0.5136,-0.0764
1936.0,5.1283,-7.4278,1.242,-0.1878,0.5136,-0.0764
1942.0,5.1283,-7.4278,1.242,-0.1878,0.5136,-0.0764
1946.0,5.1283,-7.4278,1.242,-0.1609,1.0127,-0.5559
1951.0,5.1283,-7.4278,1.242,-0.1609,1.0127,-0.5559
1956.0,5.363,-7.7949,1.0146,-0.1609,1.0127,-0.5559
1961.0,5.363,-7.7949,1.0146,-0.1609,1.0127,-0.5559
1965.0,5.363,-7.7949,1.0146,-0.1609,1.0127,-0.5559
1971.0,5.363,-7.7949,1.0146,-0.1609,1.0127,-0.5559
1976.0,5.363,-7.7949,1.0146,-0.0894,0.6339,-0.7105
1981.0,5.4396,-7.9427,1.3273,-0.0894,0.6339,-0.7105
1986.0,5.4396,-7.9427,1.3273,-0.0894,0.6339,-0.7105
1991.0,5.4396,-7.9427,1.3273,-0.0894,0.6339,-0.7105
1996.0,5.4396,-7.9427,1.3273,-0.0894,0.6339,-0.7105
2001.0,5.4396,-7.9427,1.3273,-0.0894,0.6339,-0.7105
2007.0,5.8467,-7.8235,1.8629,-0.0894,0.6339,-0.7105
2011.0,5.8467,-7.8235,1.8629,0.0547,0.1568,-0.4576
2016.0,5.8467,-7.8235,1.8629,0.0547,0.1568,-0.4576
2021.0,5.8467,-7.8235,1.8629,0.0547,0.1568,-0.4576
2026.0,5.8467,-7.8235,1.8629,0.0547,0.1568,-0.4576
2031.0,5.8467,-7.4898,2.1709,0.0547,0.1568,-0.4576
2037.0,6.1053,-7.4898,2.1709,0.0547,0.1568,-0.4576
2041.0,6.1053,-7.4898,2.1709,0.1476,-0.1577,0.0018
2046.0,6.1053,-7.4898,2.1709,0.1476,-0.1577,0.0018
2051.0,6.1053,-7.4898,2.1709,0.1476,-0.1577,0.0018
2056.0,6.1053,-7.4898,2.1709,0.1476,-0.1577,0.0018
2061.0,6.1293,-7.2181,2.3036,0.1476,-0.1577,0.0018
2066.0,6.1293,-7.2181,2.3036,0.1476,-0.1577,0.0018
2071.0,6.1293,-7.2181,2.3036,0.1934,-0.1644,0.3109
2076.0,6.1293,-7.2181,2.3036,0.1934,-0.1644,0.3109
2081.0,6.1293,-7.2181,2.3036,0.1934,-0.1644,0.3109
2087.0,6.2442,-7.3277,2.2846,0.1934,-0.1644,0.3109
2092.0,6.2442,-7.3277,2.2846,0.1934,-0.1644,0.3109
2096.0,6.2442,-7.3277,2.2846,0.1934,-0.1644,0.3109
2101.0,6.2442,-7.3277,2.2846,0.2191,-0.0044,0.3481
2107.0,6.2442,-7.3277,2.2846,0.2191,-0.0044,0.3481
2111.0,5.9185,-7.3516,2.1425,0.2191,-0.0044,0.3481
2116.0,5.9185,-7.3516,2.1425,0.2191,-0.0044,0.3481
2122.0,5.9185,-7.3516,2.1425,0.2191,-0.0044,0.3481
2126.0,5.9185,-7.3516,2.1425,0.2191,-0.0044,0.3481
2131.0,5.9185,-7.3516,2.1425,0.2484,0.0078,0.2987
2136.0,5.9185,-7.3516,2.1425,0.2484,0.0078,0.2987
2141.0,6.0191,-7.5995,1.8913,0.2484,0.0078,0.2987
2146.0,6.0191,-7.5995,1.8913,0.2484,0.0078,0.2987
2151.0,6.0191,-7.5995,1.8913,0.2484,0.0078,0.2987
2156.0,6.0191,-7.5995,1.8913,0.2484,0.0078,0.2987
2161.0,6.0191,-7.5995,1.8913,0.1513,-0.2726,0.2315
2166.0,5.9904,-7.9427,1.825,0.1513,-0.2726,0.2315
2171.0,5.9904,-7.9427,1.825,0.1513,-0.2726,0.2315
2176.0,5.9904,-7.9427,1.825,0.1513,-0.2726,0.2315
2181.0,5.9904,-7.9427,1.825,0.1513,-0.2726,0.2315
2186.0,5.9904,-7.9427,1.825,0.1513,-0.2726,0.2315
2191.0,6.2825,-7.9284,2.0003,0.1513,-0.2726,0.2315
2196.0,6.2825,-7.9284,2.0003,0.2551,-0.1693,0.1924
2201.0,6.2825,-7.9284,2.0003,0.2551,-0.1693,0.1924
2206.0,6.2825,-7.9284,2.0003,0.2551,-0.1693,0.1924
2211.0,6.2825,-7.9284,2.0003,0.2551,-0.1693,0.1924
2216.0,6.5459,-7.7615,1.5453,0.2551,-0.1693,0.1924
2221.0,6.5459,-7.7615,1.5453,0.2551,-0.1693,0.1924
2226.0,6.5459,-7.7615,1.5453,0.3168,-0.0472,0.2541
2231.0,6.5459,-7.7615,1.5453,0.3168,-0.0472,0.2541
2236.0,6.5459,-7.7615,1.5453,0.3168,-0.0472,0.2541
2241.0,6.5459,-7.7615,1.5453,0.3168,-0.0472,0.2541
2246.0,6.8716,-7.0036,0.4601,0.3168,-0.0472,0.2541
2251.0,6.8716,-7.0036,0.4601,0.3168,-0.0472,0.2541
2256.0,6.8716,-7.0036,0.4601,0.3553,-0.6495,0.2987
2261.0,6.8716,-7.0036,0.4601,0.3553,-0.6495,0.2987
2267.0,6.8716,-7.0036,0.4601,0.3553,-0.6495,0.2987
2271.0,7.2547,-6.608,0.8013,0.3553,-0.6495,0.2987
2276.0,7.2547,-6.608,0.8013,0.3553,-0.6495,0.2987
2282.0,7.2547,-6.608,0.8013,0.3553,-0.6495,0.2987
2287.0,7.2547,-6.608,0.8013,0.3553,-0.6495,0.2987
2291.0,7.2547,-6.608,0.8013,0.2924,-0.9354,0.3634
2296.0,7.2547,-6.608,0.8013,0.2924,-0.9354,0.3634
2301.0,7.2308,-6.7653,1.9339,0.2924,-0.9354,0.3634
2306.0,7.2308,-6.7653,1.9339,0.2924,-0.9354,0.3634
2311.0,7.2308,-6.7653,1.9339,0.2924,-0.9354,0.3634
2316.0,7.2308,-6.7653,1.9339,0.2924,-0.9354,0.3634
2321.0,7.2308,-6.7653,1.9339,0.1635,-0.7264,0.518
2326.0,6.7183,-7.0084,2.0145,0.1635,-0.7264,0.518
2331.0,6.7183,-7.0084,2.0145,0.1635,-0.7264,0.518
2336.0,6.7183,-7.0084,2.0145,0.1635,-0.7264,0.518
2341.0,6.7183,-7.0084,2.0145,0.1635,-0.7264,0.518
2346.0,6.7183,-7.0084,2.0145,0.1635,-0.7264,0.518
2351.0,6.1484,-7.1466,1.9055,0.0383,-0.6189,0.4575
2356.0,6.1484,-7.1466,1.9055,0.0383,-0.6189,0.4575
2361.0,6.1484,-7.1466,1.9055,0.0383,-0.6189,0.4575
2366.0,6.1484,-7.1466,1.9055,0.0383,-0.6189,0.4575
2371.0,6.1484,-7.1466,1.9055,0.0383,-0.6189,0.4575
2376.0,5.7078,-7.4707,1.9482,0.0383,-0.6189,0.4575
2381.0,5.7078,-7.4707,1.9482,-0.0924,-0.4986,0.2254
2386.0,5.7078,-7.4707,1.9482,-0.0924,-0.4986,0.2254
2392.0,5.7078,-7.4707,1.9482,-0.0924,-0.4986,0.2254
2396.0,5.7078,-7.4707,1.9482,-0.0924,-0.4986,0.2254
2401.0,5.7078,-7.4707,1.9482,-0.0924,-0.4986,0.2254
2406.0,5.5833,-7.9045,1.9956,-0.0924,-0.4986,0.2254
2411.0,5.5833,-7.9045,1.9956,-0.1859,-0.3141,0.0732
2416.0,5.5833,-7.9045,1.9956,-0.1859,-0.3141,0.0732
2421.0,5.5833,-7.9045,1.9956,-0.1859,-0.3141,0.0732
2426.0,5.5833,-7.9045,1.9956,-0.1859,-0.3141,0.0732
2431.0,5.2576,-8.119,1.7823,-0.1859,-0.3141,0.0732
2436.0,5.2576,-8.119,1.7823,-0.1859,-0.3141,0.0732
2440.0,5.2576,-8.119,1.7823,-0.1859,-0.3141,0.0732
2447.0,5.2576,-8.119,1.7823,-0.1749,-0.1583,-0.041
2452.0,5.2576,-8.119,1.7823,-0.1749,-0.1583,-0.041
2456.0,4.8649,-8.1381,1.3321,-0.1749,-0.1583,-0.041
2461.0,4.8649,-8.1381,1.3321,-0.1749,-0.1583,-0.041
2466.0,4.8649,-8.1381,1.3321,-0.1749,-0.1583,-0.041
2471.0,4.8649,-8.1381,1.3321,-0.1749,-0.1583,-0.041
2476.0,4.8649,-8.1381,1.3321,-0.1645,-0.2775,-0.3537
2481.0,4.8649,-8.1381,1.3321,-0.1645,-0.2775,-0.3537
2486.0,4.4387,-8.3764,0.6354,-0.1645,-0.2775,-0.3537
2492.0,4.4387,-8.3764,0.6354,-0.1645,-0.2775,-0.3537
2495.0,4.4387,-8.3764,0.6354,-0.1645,-0.2775,-0.3537
2502.0,4.4387,-8.3764,0.6354,-0.1645,-0.2775,-0.3537
2507.0,4.4387,-8.3764,0.6354,-0.2201,-0.9396,-0.9952
2511.0,4.5153,-7.8044,0.4459,-0.2201,-0.9396,-0.9952
2516.0,4.5153,-7.8044,0.4459,-0.2201,-0.9396,-0.9952
2521.0,4.5153,-7.8044,0.4459,-0.2201,-0.9396,-0.9952
2526.0,4.5153,-7.8044,0.4459,-0.2201,-0.9396,-0.9952
2531.0,4.5153,-7.8044,0.4459,-0.2201,-0.9396,-0.9952
2536.0,4.5153,-7.8044,0.4459,-0.2775,1.6193,-1.3714
2541.0,5.3247,-8.0857,-1.0801,-0.2775,1.6193,-1.3714
2546.0,5.3247,-8.0857,-1.0801,-0.2775,1.6193,-1.3714
2551.0,5.3247,-8.0857,-1.0801,-0.2775,1.6193,-1.3714
2555.0,5.3247,-8.0857,-1.0801,-0.2775,1.6193,-1.3714
2562.0,5.3247,-8.0857,-1.0801,-0.2775,1.6193,-1.3714
2566.0,6.3735,-8.9294,0.1378,-0.2775,1.6193,-1.3714
2571.0,6.3735,-8.9294,0.1378,-0.1108,0.5167,-0.8235
2576.0,6.3735,-8.9294,0.1378,-0.1108,0.5167,-0.8235
2581.0,6.3735,-8.9294,0.1378,-0.1108,0.5167,-0.8235
2587.0,6.3735,-8.9294,0.1378,-0.1108,0.5167,-0.8235
2591.0,5.521,-9.1105,1.9861,-0.1108,0.5167,-0.8235
2596.0,5.521,-9.1105,1.9861,-0.1108,0.5167,-0.8235
2601.0,5.521,-9.1105,1.9861,-0.1364,-0.4277,0.1221
2606.0,5.521,-9.1105,1.9861,-0.1364,-0.4277,0.1221
2611.0,5.521,-9.1105,1.9861,-0.1364,-0.4277,0.1221
2616.0,5.521,-9.1105,1.9861,-0.1364,-0.4277,0.1221
2621.0,5.1187,-8.5385,2.2041,-0.1364,-0.4277,0.1221
2626.0,5.1187,-8.5385,2.2041,-0.1364,-0.4277,0.1221
2631.0,5.1187,-8.5385,2.2041,0.1775,-0.7222,0.7556
2636.0,5.1187,-8.5385,2.2041,0.1775,-0.7222,0.7556
2641.0,5.1187,-8.5385,2.2041,0.1775,-0.7222,0.7556
2646.0,5.43,-7.7329,1.6212,0.1775,-0.7222,0.7556
2651.0,5.43,-7.7329,1.6212,0.1775,-0.7222,0.7556
2656.0,5.43,-7.7329,1.6212,0.1775,-0.7222,0.7556
2661.0,5.43,-7.7329,1.6212,0.3791,-0.4687,0.9505
2667.0,5.43,-7.7329,1.6212,0.3791,-0.4687,0.9505
2671.0,5.43,-7.7329,1.6212,0.3791,-0.4687,0.9505
2676.0,6.0431,-7.1991,0.3606,0.3791,-0.4687,0.9505
2682.0,6.0431,-7.1991,0.3606,0.3791,-0.4687,0.9505
2686.0,6.0431,-7.1991,0.3606,0.3791,-0.4687,0.9505
2691.0,6.0431,-7.1991,0.3606,0.4158,-0.1101,0.5448
2696.0,6.0431,-7.1991,0.3606,0.4158,-0.1101,0.5448
2701.0,6.9482,-6.7128,-0.9901,0.4158,-0.1101,0.5448
2706.0,6.9482,-6.7128,-0.9901,0.4158,-0.1101,0.5448
2711.0,6.9482,-6.7128,-0.9901,0.4158,-0.1101,0.5448
2716.0,6.9482,-6.7128,-0.9901,0.4158,-0.1101,0.5448
2721.0,6.9482,-6.7128,-0.9901,0.1048,-0.7435,0.1575
2726.0,6.5747,-7.3706,1.4269,0.1048,-0.7435,0.1575
2731.0,6.5747,-7.3706,1.4269,0.1048,-0.7435,0.1575
2736.0,6.5747,-7.3706,1.4269,0.1048,-0.7435,0.1575
2741.0,6.5747,-7.3706,1.4269,0.1048,-0.7435,0.1575
2746.0,6.5747,-7.3706,1.4269,0.1048,-0.7435,0.1575
2751.0,6.5747,-7.3706,1.4269,0.0389,-0.6257,0.5143
2756.0,4.9463,-8.7578,1.6875,0.0389,-0.6257,0.5143
2761.0,4.9463,-8.7578,1.6875,0.0389,-0.6257,0.5143
2767.0,4.9463,-8.7578,1.6875,0.0389,-0.6257,0.5143
2771.0,4.9463,-8.7578,1.6875,0.0389,-0.6257,0.5143
2776.0,4.9463,-8.7578,1.6875,0.0389,-0.6257,0.5143
2781.0,4.1226,-8.6768,0.4791,0.0389,-0.6257,0.5143
2786.0,4.1226,-8.6768,0.4791,0.2337,-0.7497,0.7098
2791.0,4.1226,-8.6768,0.4791,0.2337,-0.7497,0.7098
2796.0,4.1226,-8.6768,0.4791,0.2337,-0.7497,0.7098
2801.0,4.1226,-8.6768,0.4791,0.2337,-0.7497,0.7098
2806.0,4.1226,-8.6768,0.4791,0.2337,-0.7497,0.7098
2811.0,5.7222,-7.914,0.28,0.2337,-0.7497,0.7098
2816.0,5.7222,-7.914,0.28,0.4139,-0.8859,0.6157
2822.0,5.7222,-7.914,0.28,0.4139,-0.8859,0.6157
2827.0,5.7222,-7.914,0.28,0.4139,-0.8859,0.6157
2831.0,5.7222,-7.914,0.28,0.4139,-0.8859,0.6157
2836.0,5.4779,-8.753,0.6923,0.4139,-0.8859,0.6157
2841.0,5.4779,-8.753,0.6923,0.4139,-0.8859,0.6157
2846.0,5.4779,-8.753,0.6923,0.4665,-0.6495,0.4111
2851.0,5.4779,-8.753,0.6923,0.4665,-0.6495,0.4111
2856.0,5.4779,-8.753,0.6923,0.4665,-0.6495,0.4111
2861.0,5.4779,-8.753,0.6923,0.4665,-0.6495,0.4111
2866.0,4.6638,-8.9675,1.0951,0.4665,-0.6495,0.4111
2871.0,4.6638,-8.9675,1.0951,0.4665,-0.6495,0.4111
2876.0,4.6638,-8.9675,1.0951,0.6003,-0.5401,-0.0624
2881.0,4.6638,-8.9675,1.0951,0.6003,-0.5401,-0.0624
2886.0,4.6638,-8.9675,1.0951,0.6003,-0.5401,-0.0624
2891.0,4.7308,-8.2239,1.7302,0.6003,-0.5401,-0.0624
2896.0,4.7308,-8.2239,1.7302,0.6003,-0.5401,-0.0624
2901.0,4.7308,-8.2239,1.7302,0.6003,-0.5401,-0.0624
2906.0,4.7308,-8.2239,1.7302,0.4372,0.2198,-0.3372
2911.0,4.7308,-8.2239,1.7302,0.4372,0.2198,-0.3372
2916.0,4.8745,-7.628,1.351,0.4372,0.2198,-0.3372
2921.0,4.8745,-7.628,1.351,0.4372,0.2198,-0.3372
2926.0,4.8745,-7.628,1.351,0.4372,0.2198,-0.3372
2931.0,4.8745,-7.628,1.351,0.4372,0.2198,-0.3372
2936.0,4.8745,-7.628,1.351,0.4372,0.2198,-0.3372
2941.0,4.5009,-6.6318,1.6685,-0.1377,0.725,-0.6519
2946.0,4.5009,-6.6318,1.6685,-0.1377,0.725,-0.6519
2951.0,4.5009,-6.6318,1.6685,-0.1377,0.725,-0.6519
2956.0,4.5009,-6.6318,1.6685,-0.1377,0.725,-0.6519
2961.0,4.5009,-6.6318,1.6685,-0.1377,0.725,-0.6519
2966.0,4.5009,-6.6318,1.6685,-0.1377,0.725,-0.6519
2972.0,4.5584,-7.6471,1.4174,-0.7369,1.4965,-0.793
2976.0,4.5584,-7.6471,1.4174,-0.7369,1.4965,-0.793
2981.0,4.5584,-7.6471,1.4174,-0.7369,1.4965,-0.793
2986.0,4.5584,-7.6471,1.4174,-0.7369,1.4965,-0.793
2991.0,4.5584,-7.6471,1.4174,-0.7369,1.4965,-0.793
2996.0,5.1091,-8.8579,1.2183,-0.7369,1.4965,-0.793
3001.0,5.1091,-8.8579,1.2183,-0.9648,2.1336,-0.8876
3006.0,5.1091,-8.8579,1.2183,-0.9648,2.1336,-0.8876
3011.0,5.1091,-8.8579,1.2183,-0.9648,2.1336,-0.8876
3016.0,5.1091,-8.8579,1.2183,-0.9648,2.1336,-0.8876
3021.0,5.1091,-8.8579,1.2183,-0.9648,2.1336,-0.8876
3026.0,5.612,-9.6253,0.8203,-0.9648,2.1336,-0.8876
3031.0,5.612,-9.6253,0.8203,-0.6404,2.1562,-0.9298
3036.0,5.612,-9.6253,0.8203,-0.6404,2.1562,-0.9298
3041.0,5.612,-9.6253,0.8203,-0.6404,2.1562,-0.9298
3046.0,5.612,-9.6253,0.8203,-0.6404,2.1562,-0.9298
3051.0,6.1915,-8.3717,-0.3313,-0.6404,2.1562,-0.9298
3056.0,6.1915,-8.3717,-0.3313,-0.6404,2.1562,-0.9298
3061.0,6.1915,-8.3717,-0.3313,-0.6404,2.1562,-0.9298
3066.0,6.1915,-8.3717,-0.3313,-0.3075,1.2754,-0.9603
3071.0,6.1915,-8.3717,-0.3313,-0.3075,1.2754,-0.9603
3076.0,6.1915,-8.3717,-0.3313,-0.3075,1.2754,-0.9603
3081.0,6.0191,-7.8283,0.9435,-0.3075,1.2754,-0.9603
3086.0,6.0191,-7.8283,0.9435,-0.3075,1.2754,-0.9603
3091.0,6.0191,-7.8283,0.9435,-0.3075,1.2754,-0.9603
3096.0,6.0191,-7.8283,0.9435,0.0389,0.6101,-0.7001
3101.0,6.0191,-7.8283,0.9435,0.0389,0.6101,-0.7001
3106.0,6.6992,-7.2991,1.5027,0.0389,0.6101,-0.7001
3111.0,6.6992,-7.2991,1.5027,0.0389,0.6101,-0.7001
3116.0,6.6992,-7.2991,1.5027,0.0389,0.6101,-0.7001
3121.0,6.6992,-7.2991,1.5027,0.0389,0.6101,-0.7001
3126.0,6.6992,-7.2991,1.5027,0.0804,0.2344,-0.1943
3131.0,7.1446,-6.7605,1.5122,0.0804,0.2344,-0.1943
3136.0,7.1446,-6.7605,1.5122,0.0804,0.2344,-0.1943
3141.0,7.1446,-6.7605,1.5122,0.0804,0.2344,-0.1943
3146.0,7.1446,-6.7605,1.5122,0.0804,0.2344,-0.1943
3151.0,7.1446,-6.7605,1.5122,0.0804,0.2344,-0.1943
3156.0,7.1446,-6.7605,1.5122,-0.1651,0.0945,0.1484
3161.0,6.7327,-7.1371,0.9719,-0.1651,0.0945,0.1484
3166.0,6.7327,-7.1371,0.9719,-0.1651,0.0945,0.1484
3171.0,6.7327,-7.1371,0.9719,-0.1651,0.0945,0.1484
3176.0,6.7327,-7.1371,0.9719,-0.1651,0.0945,0.1484
3181.0,6.7327,-7.1371,0.9719,-0.1651,0.0945,0.1484
3186.0,5.8563,-8.038,0.8155,-0.3063,-0.0716,0.0787
3191.0,5.8563,-8.038,0.8155,-0.3063,-0.0716,0.0787
3196.0,5.8563,-8.038,0.8155,-0.3063,-0.0716,0.0787
3201.0,5.8563,-8.038,0.8155,-0.3063,-0.0716,0.0787
3206.0,5.8563,-8.038,0.8155,-0.3063,-0.0716,0.0787
3211.0,5.8563,-8.038,0.8155,-0.3063,-0.0716,0.0787
3216.0,5.1235,-8.7959,1.6401,-0.3454,0.1953,-0.2591
3221.0,5.1235,-8.7959,1.6401,-0.3454,0.1953,-0.2591
3226.0,5.1235,-8.7959,1.6401,-0.3454,0.1953,-0.2591
3231.0,5.1235,-8.7959,1.6401,-0.3454,0.1953,-0.2591
3236.0,5.1235,-8.7959,1.6401,-0.3454,0.1953,-0.2591
3241.0,4.7117,-8.9199,1.46,-0.3454,0.1953,-0.2591
3246.0,4.7117,-8.9199,1.46,-0.3454,0.1953,-0.2591
3251.0,4.7117,-8.9199,1.46,-0.2995,0.392,-0.3342
3256.0,4.7117,-8.9199,1.46,-0.2995,0.392,-0.3342
3261.0,4.7117,-8.9199,1.46,-0.2995,0.392,-0.3342
3267.0,4.7308,-8.4575,1.1615,-0.2995,0.392,-0.3342
3271.0,4.7308,-8.4575,1.1615,-0.2995,0.392,-0.3342
3276.0,4.7308,-8.4575,1.1615,-0.2995,0.392,-0.3342
3281.0,4.7308,-8.4575,1.1615,-0.178,-0.1412,-0.1741
3286.0,4.7308,-8.4575,1.1615,-0.178,-0.1412,-0.1741
3292.0,4.7308,-8.4575,1.1615,-0.178,-0.1412,-0.1741
3296.0,4.8314,-8.4956,1.3984,-0.178,-0.1412,-0.1741
3301.0,4.8314,-8.4956,1.3984,-0.178,-0.1412,-0.1741
3306.0,4.8314,-8.4956,1.3984,-0.178,-0.1412,-0.1741
3311.0,4.8314,-8.4956,1.3984,-0.0643,-0.509,-0.0715
3316.0,4.8314,-8.4956,1.3984,-0.0643,-0.509,-0.0715
3321.0,4.8553,-9.0629,1.4032,-0.0643,-0.509,-0.0715
3325.0,4.8553,-9.0629,1.4032,-0.0643,-0.509,-0.0715
3331.0,4.8553,-9.0629,1.4032,-0.0643,-0.509,-0.0715
3336.0,4.8553,-9.0629,1.4032,-0.0643,-0.509,-0.0715
3341.0,4.8553,-9.0629,1.4032,0.1403,-0.6544,0.047
3346.0,5.0086,-9.2869,0.1426,0.1403,-0.6544,0.047
3351.0,5.0086,-9.2869,0.1426,0.1403,-0.6544,0.047
3356.0,5.0086,-9.2869,0.1426,0.1403,-0.6544,0.047
3361.0,5.0086,-9.2869,0.1426,0.1403,-0.6544,0.047
3366.0,5.0086,-9.2869,0.1426,0.1403,-0.6544,0.047
3371.0,5.2768,-8.672,-0.701,0.4506,-1.1315,0.0219
3376.0,5.2768,-8.672,-0.701,0.4506,-1.1315,0.0219
3381.0,5.2768,-8.672,-0.701,0.4506,-1.1315,0.0219
3386.0,5.2768,-8.672,-0.701,0.4506,-1.1315,0.0219
3391.0,5.2768,-8.672,-0.701,0.4506,-1.1315,0.0219
3396.0,5.2768,-8.672,-0.701,0.4506,-1.1315,0.0219
3401.0,6.2586,-7.833,-1.0517,0.6687,-1.5456,-0.4112
3406.0,6.2586,-7.833,-1.0517,0.6687,-1.5456,-0.4112
3411.0,6.2586,-7.833,-1.0517,0.6687,-1.5456,-0.4112
3416.0,6.2586,-7.833,-1.0517,0.6687,-1.5456,-0.4112
3421.0,6.2586,-7.833,-1.0517,0.6687,-1.5456,-0.4112
3426.0,6.2586,-7.833,-1.0517,0.6687,-1.5456,-0.4112
3431.0,8.3467,-7.1657,-3.1179,0.6687,-1.5456,-0.4112
3435.0,8.3467,-7.1657,-3.1179,0.7469,-1.8388,-1.0355
3441.0,8.3467,-7.1657,-3.1179,0.7469,-1.8388,-1.0355
3445.0,8.3467,-7.1657,-3.1179,0.7469,-1.8388,-1.0355
3451.0,8.3467,-7.1657,-3.1179,0.7469,-1.8388,-1.0355
3456.0,11.1627,-7.1466,-3.6107,0.7469,-1.8388,-1.0355
3461.0,11.1627,-7.1466,-3.6107,0.7469,-1.8388,-1.0355
3466.0,11.1627,-7.1466,-3.6107,0.5929,-1.826,-1.9322
3471.0,11.1627,-7.1466,-3.6107,0.5929,-1.826,-1.9322
3476.0,11.1627,-7.1466,-3.6107,0.5929,-1.826,-1.9322
3481.0,13.9213,-8.0761,-5.0799,0.5929,-1.826,-1.9322
3486.0,13.9213,-8.0761,-5.0799,0.5929,-1.826,-1.9322
3491.0,13.9213,-8.0761,-5.0799,0.5929,-1.826,-1.9322
3496.0,13.9213,-8.0761,-5.0799,0.3828,-1.4381,-2.3214
3501.0,13.9213,-8.0761,-5.0799,0.3828,-1.4381,-2.3214
3506.0,13.112,-7.7568,-1.9189,0.3828,-1.4381,-2.3214
3511.0,13.112,-7.7568,-1.9189,0.3828,-1.4381,-2.3214
3516.0,13.112,-7.7568,-1.9189,0.3828,-1.4381,-2.3214
3521.0,13.112,-7.7568,-1.9189,0.3828,-1.4381,-2.3214
3526.0,13.112,-7.7568,-1.9189,0.3828,-1.4381,-2.3214
3531.0,13.112,-7.7568,-1.9189,0.2362,-1.7662,-1.5236
3536.0,7.8438,-8.0237,3.6163,0.2362,-1.7662,-1.5236
3541.0,7.8438,-8.0237,3.6163,0.2362,-1.7662,-1.5236
3546.0,7.8438,-8.0237,3.6163,0.2362,-1.7662,-1.5236
3551.0,7.8438,-8.0237,3.6163,0.2362,-1.7662,-1.5236
3556.0,7.8438,-8.0237,3.6163,0.2362,-1.7662,-1.5236
3561.0,7.8438,-8.0237,3.6163,0.6235,-1.5554,-0.8284
3566.0,2.8582,-7.7091,3.948,0.6235,-1.5554,-0.8284
3571.0,2.8582,-7.7091,3.948,0.6235,-1.5554,-0.8284
3576.0,2.8582,-7.7091,3.948,0.6235,-1.5554,-0.8284
3581.0,2.8582,-7.7091,3.948,0.6235,-1.5554,-0.8284
3586.0,2.8582,-7.7091,3.948,0.6235,-1.5554,-0.8284
3591.0,0.7414,-5.1445,3.8627,0.191,-0.3562,-1.0813
3596.0,0.7414,-5.1445,3.8627,0.191,-0.3562,-1.0813
3601.0,0.7414,-5.1445,3.8627,0.191,-0.3562,-1.0813
3606.0,0.7414,-5.1445,3.8627,0.191,-0.3562,-1.0813
3611.0,0.7414,-5.1445,3.8627,0.191,-0.3562,-1.0813
3615.0,2.0728,-3.6382,-0.0991,0.191,-0.3562,-1.0813
3621.0,2.0728,-3.6382,-0.0991,-0.3477,0.7158,-1.0343
3626.0,2.0728,-3.6382,-0.0991,-0.3477,0.7158,-1.0343
3631.0,2.0728,-3.6382,-0.0991,-0.3477,0.7158,-1.0343
3636.0,2.0728,-3.6382,-0.0991,-0.3477,0.7158,-1.0343
3641.0,2.0728,-3.6382,-0.0991,-0.3477,0.7158,-1.0343
3646.0,3.2366,-4.5773,-0.6725,-0.3477,0.7158,-1.0343
3651.0,3.2366,-4.5773,-0.6725,0.0707,0.546,-0.333
3656.0,3.2366,-4.5773,-0.6725,0.0707,0.546,-0.333
3661.0,3.2366,-4.5773,-0.6725,0.0707,0.546,-0.333
3666.0,3.2366,-4.5773,-0.6725,0.0707,0.546,-0.333
3671.0,3.3467,-4.1769,-2.9805,0.0707,0.546,-0.333
3677.0,3.3467,-4.1769,-2.9805,0.0707,0.546,-0.333
3682.0,3.3467,-4.1769,-2.9805,0.2662,0.4147,-0.0349
3686.0,3.3467,-4.1769,-2.9805,0.2662,0.4147,-0.0349
3691.0,3.3467,-4.1769,-2.9805,0.2662,0.4147,-0.0349
3696.0,3.2701,-4.3771,-6.5205,0.2662,0.4147,-0.0349
3701.0,3.2701,-4.3771,-6.5205,0.2662,0.4147,-0.0349
3706.0,3.2701,-4.3771,-6.5205,0.2662,0.4147,-0.0349
3712.0,3.2701,-4.3771,-6.5205,0.1012,0.8142,-0.7954
3717.0,3.2701,-4.3771,-6.5205,0.1012,0.8142,-0.7954
3721.0,3.2701,-4.3771,-6.5205,0.1012,0.8142,-0.7954
3726.0,3.203,-7.2658,-9.8426,0.1012,0.8142,-0.7954
3731.0,3.203,-7.2658,-9.8426,0.1012,0.8142,-0.7954
3737.0,3.203,-7.2658,-9.8426,0.1012,0.8142,-0.7954
3741.0,3.203,-7.2658,-9.8426,0.1012,0.8142,-0.7954
3746.0,3.203,-7.2658,-9.8426,0.323,0.1263,-1.3507
3751.0,6.5363,-9.3727,-9.582,0.323,0.1263,-1.3507
3756.0,6.5363,-9.3727,-9.582,0.323,0.1263,-1.3507
3761.0,6.5363,-9.3727,-9.582,0.323,0.1263,-1.3507
3766.0,6.5363,-9.3727,-9.582,0.323,0.1263,-1.3507
3771.0,6.5363,-9.3727,-9.582,0.323,0.1263,-1.3507
3776.0,10.2241,-6.6461,-3.8667,-0.0857,-1.0533,-0.6879
3781.0,10.2241,-6.6461,-3.8667,-0.0857,-1.0533,-0.6879
3786.0,10.2241,-6.6461,-3.8667,-0.0857,-1.0533,-0.6879
3791.0,10.2241,-6.6461,-3.8667,-0.0857,-1.0533,-0.6879
3796.0,10.2241,-6.6461,-3.8667,-0.0857,-1.0533,-0.6879
3801.0,9.975,-3.5381,-2.8715,-0.0857,-1.0533,-0.6879
3807.0,9.975,-3.5381,-2.8715,-0.3355,-1.0038,-0.807
3811.0,9.975,-3.5381,-2.8715,-0.3355,-1.0038,-0.807
3816.0,9.975,-3.5381,-2.8715,-0.3355,-1.0038,-0.807
3821.0,9.975,-3.5381,-2.8715,-0.3355,-1.0038,-0.807
3826.0,9.975,-3.5381,-2.8715,-0.3355,-1.0038,-0.807
3831.0,9.975,-3.5381,-2.8715,-0.3355,-1.0038,-0.807
3836.0,6.8524,-5.831,-7.4683,0.8538,-0.928,-0.6103
3841.0,6.8524,-5.831,-7.4683,0.8538,-0.928,-0.6103
3846.0,6.8524,-5.831,-7.4683,0.8538,-0.928,-0.6103
3851.0,6.8524,-5.831,-7.4683,0.8538,-0.928,-0.6103
3856.0,6.8524,-5.831,-7.4683,0.8538,-0.928,-0.6103
3861.0,-0.0153,-10.7074,-7.1177,0.8538,-0.928,-0.6103
3866.0,-0.0153,-10.7074,-7.1177,0.8679,-2.377,0.3341
3871.0,-0.0153,-10.7074,-7.1177,0.8679,-2.377,0.3341
3876.0,-0.0153,-10.7074,-7.1177,0.8679,-2.377,0.3341
3881.0,-0.0153,-10.7074,-7.1177,0.8679,-2.377,0.3341
3886.0,-0.0153,-10.7074,-7.1177,0.8679,-2.377,0.3341
3891.0,0.9856,-11.5368,-0.4356,0.8679,-2.377,0.3341
3896.0,0.9856,-11.5368,-0.4356,0.8679,-2.377,0.3341
3901.0,0.9856,-11.5368,-0.4356,1.0059,-0.8205,-0.8296
3906.0,0.9856,-11.5368,-0.4356,1.0059,-0.8205,-0.8296
3911.0,0.9856,-11.5368,-0.4356,1.0059,-0.8205,-0.8296
3917.0,2.4032,-3.1091,-4.3927,1.0059,-0.8205,-0.8296
3921.0,2.4032,-3.1091,-4.3927,1.0059,-0.8205,-0.8296
3926.0,2.4032,-3.1091,-4.3927,1.0059,-0.8205,-0.8296
3931.0,2.4032,-3.1091,-4.3927,1.0059,-0.8205,-0.8296
3936.0,2.4032,-3.1091,-4.3927,1.0059,-0.8205,-0.8296
3941.0,1.9531,-4.3389,-8.8474,0.775,-0.2842,-1.9249
3946.0,1.9531,-4.3389,-8.8474,0.775,-0.2842,-1.9249
3951.0,1.9531,-4.3389,-8.8474,0.775,-0.2842,-1.9249
3956.0,1.9531,-4.3389,-8.8474,0.775,-0.2842,-1.9249
3961.0,1.9531,-4.3389,-8.8474,0.775,-0.2842,-1.9249
3966.0,1.9531,-4.3389,-8.8474,0.775,-0.2842,-1.9249
3971.0,2.978,-8.9866,-3.5681,0.4146,-0.4601,-0.7032
3976.0,2.978,-8.9866,-3.5681,0.4146,-0.4601,-0.7032
3981.0,2.978,-8.9866,-3.5681,0.4146,-0.4601,-0.7032
3986.0,2.978,-8.9866,-3.5681,0.4146,-0.4601,-0.7032
3991.0,2.978,-8.9866,-3.5681,0.4146,-0.4601,-0.7032
3996.0,2.8055,-7.4707,-5.3642,0.4146,-0.4601,-0.7032
4001.0,2.8055,-7.4707,-5.3642,0.6981,-0.4845,-1.1473
4007.0,2.8055,-7.4707,-5.3642,0.6981,-0.4845,-1.1473
4012.0,2.8055,-7.4707,-5.3642,0.6981,-0.4845,-1.1473
4016.0,2.8055,-7.4707,-5.3642,0.6981,-0.4845,-1.1473
4021.0,2.8055,-7.4707,-5.3642,0.6981,-0.4845,-1.1473
4026.0,2.0584,-7.056,-7.4873,0.6981,-0.4845,-1.1473
4031.0,2.0584,-7.056,-7.4873,0.5111,-0.6696,-1.3611
4036.0,2.0584,-7.056,-7.4873,0.5111,-0.6696,-1.3611
4041.0,2.0584,-7.056,-7.4873,0.5111,-0.6696,-1.3611
4046.0,2.0584,-7.056,-7.4873,0.5111,-0.6696,-1.3611
4051.0,2.3458,-6.0026,-5.7765,0.5111,-0.6696,-1.3611
4056.0,2.3458,-6.0026,-5.7765,0.5111,-0.6696,-1.3611
4061.0,2.3458,-6.0026,-5.7765,0.5111,-0.6696,-1.3611
4066.0,2.3458,-6.0026,-5.7765,0.4183,-0.5169,-1.1564
4071.0,2.3458,-6.0026,-5.7765,0.4183,-0.5169,-1.1564
4076.0,2.3458,-5.8834,-7.4683,0.4183,-0.5169,-1.1564
4081.0,2.3458,-5.8834,-7.4683,0.4183,-0.5169,-1.1564
4086.0,2.3458,-5.8834,-7.4683,0.4183,-0.5169,-1.1564
4091.0,2.3458,-5.8834,-7.4683,0.4183,-0.5169,-1.1564
4096.0,2.3458,-5.8834,-7.4683,0.3395,-0.4063,-1.4313
4101.0,2.3458,-5.8834,-7.4683,0.3395,-0.4063,-1.4313
4106.0,2.3889,-6.5841,-6.7859,0.3395,-0.4063,-1.4313
4111.0,2.3889,-6.5841,-6.7859,0.3395,-0.4063,-1.4313
4116.0,2.3889,-6.5841,-6.7859,0.3395,-0.4063,-1.4313
4121.0,2.3889,-6.5841,-6.7859,0.3395,-0.4063,-1.4313
4126.0,2.3889,-6.5841,-6.7859,0.0854,-0.3807,-1.4203
4132.0,2.0872,-5.6832,-7.8333,0.0854,-0.3807,-1.4203
4136.0,2.0872,-5.6832,-7.8333,0.0854,-0.3807,-1.4203
4142.0,2.0872,-5.6832,-7.8333,0.0854,-0.3807,-1.4203
4146.0,2.0872,-5.6832,-7.8333,0.0854,-0.3807,-1.4203
4151.0,2.0872,-5.6832,-7.8333,0.0854,-0.3807,-1.4203
4156.0,2.0872,-5.6832,-7.8333,-0.0392,-0.2976,-1.5321
4161.0,1.8812,-6.4268,-7.3688,-0.0392,-0.2976,-1.5321
4166.0,1.8812,-6.4268,-7.3688,-0.0392,-0.2976,-1.5321
4171.0,1.8812,-6.4268,-7.3688,-0.0392,-0.2976,-1.5321
4176.0,1.8812,-6.4268,-7.3688,-0.0392,-0.2976,-1.5321
4182.0,1.8812,-6.4268,-7.3688,-0.0392,-0.2976,-1.5321
4186.0,1.9243,-5.6308,-7.6769,-0.0392,-0.2976,-1.5321
4192.0,1.9243,-5.6308,-7.6769,-0.1669,-0.2658,-1.4771
4196.0,1.9243,-5.6308,-7.6769,-0.1669,-0.2658,-1.4771
4201.0,1.9243,-5.6308,-7.6769,-0.1669,-0.2658,-1.4771
4206.0,1.9243,-5.6308,-7.6769,-0.1669,-0.2658,-1.4771
4211.0,1.4837,-5.5354,-7.8001,-0.1669,-0.2658,-1.4771
4216.0,1.4837,-5.5354,-7.8001,-0.1669,-0.2658,-1.4771
4221.0,1.4837,-5.5354,-7.8001,-0.1541,-0.2023,-1.5242
4226.0,1.4837,-5.5354,-7.8001,-0.1541,-0.2023,-1.5242
4231.0,1.4837,-5.5354,-7.8001,-0.1541,-0.2023,-1.5242
4236.0,1.4789,-4.5678,-8.1129,-0.1541,-0.2023,-1.5242
4241.0,1.4789,-4.5678,-8.1129,-0.1541,-0.2023,-1.5242
4246.0,1.4789,-4.5678,-8.1129,-0.1541,-0.2023,-1.5242
4251.0,1.4789,-4.5678,-8.1129,-0.3642,-0.016,-1.5407
4256.0,1.4789,-4.5678,-8.1129,-0.3642,-0.016,-1.5407
4261.0,1.4789,-4.5678,-8.1129,-0.3642,-0.016,-1.5407
4266.0,0.4014,-2.9518,-8.9612,-0.3642,-0.016,-1.5407
4271.0,0.4014,-2.9518,-8.9612,-0.3642,-0.016,-1.5407
4276.0,0.4014,-2.9518,-8.9612,-0.3642,-0.016,-1.5407
4281.0,0.4014,-2.9518,-8.9612,0.0182,-0.1565,-1.2792
4286.0,0.4014,-2.9518,-8.9612,0.0182,-0.1565,-1.2792
4291.0,0.0134,-1.0117,-8.9801,0.0182,-0.1565,-1.2792
4296.0,0.0134,-1.0117,-8.9801,0.0182,-0.1565,-1.2792
4301.0,0.0134,-1.0117,-8.9801,0.0182,-0.1565,-1.2792
4306.0,0.0134,-1.0117,-8.9801,0.0182,-0.1565,-1.2792
4311.0,0.0134,-1.0117,-8.9801,0.0182,-0.1565,-1.2792
4316.0,0.0134,-1.0117,-8.9801,-0.2195,-0.0441,-1.0465
4321.0,0.6887,-1.8316,-9.2171,-0.2195,-0.0441,-1.0465
4326.0,0.6887,-1.8316,-9.2171,-0.2195,-0.0441,-1.0465
4331.0,0.6887,-1.8316,-9.2171,-0.2195,-0.0441,-1.0465
4336.0,0.6887,-1.8316,-9.2171,-0.2195,-0.0441,-1.0465
4341.0,0.6887,-1.8316,-9.2171,-0.2195,-0.0441,-1.0465
4346.0,1.2682,-3.4619,-10.2122,-0.1908,-0.107,-0.8125
4352.0,1.2682,-3.4619,-10.2122,-0.1908,-0.107,-0.8125
4356.0,1.2682,-3.4619,-10.2122,-0.1908,-0.107,-0.8125
4361.0,1.2682,-3.4619,-10.2122,-0.1908,-0.107,-0.8125
4368.0,1.2682,-3.4619,-10.2122,-0.1908,-0.107,-0.8125
4371.0,1.2682,-3.4619,-10.2122,-0.1908,-0.107,-0.8125
4376.0,1.3257,-3.3045,-10.5724,-0.0814,0.1447,-0.5321
4381.0,1.3257,-3.3045,-10.5724,-0.0814,0.1447,-0.5321
4386.0,1.3257,-3.3045,-10.5724,-0.0814,0.1447,-0.5321
4392.0,1.3257,-3.3045,-10.5724,-0.0814,0.1447,-0.5321
4396.0,1.3257,-3.3045,-10.5724,-0.0814,0.1447,-0.5321
4403.0,1.9195,-3.1568,-11.1648,-0.0814,0.1447,-0.5321
4406.0,1.9195,-3.1568,-11.1648,-0.0069,-0.1437,-0.3043
4411.0,1.9195,-3.1568,-11.1648,-0.0069,-0.1437,-0.3043
4416.0,1.9195,-3.1568,-11.1648,-0.0069,-0.1437,-0.3043
4422.0,1.9195,-3.1568,-11.1648,-0.0069,-0.1437,-0.3043
4426.0,1.8477,-3.8384,-11.1316,-0.0069,-0.1437,-0.3043
4431.0,1.8477,-3.8384,-11.1316,-0.0069,-0.1437,-0.3043
4436.0,1.8477,-3.8384,-11.1316,-0.0069,-0.1437,-0.3043
4441.0,1.8477,-3.8384,-11.1316,0.0499,-0.2017,-0.055
4446.0,1.8477,-3.8384,-11.1316,0.0499,-0.2017,-0.055
4451.0,1.8477,-3.8384,-11.1316,0.0499,-0.2017,-0.055
4456.0,1.5939,-4.501,-11.5108,0.0499,-0.2017,-0.055
4461.0,1.5939,-4.501,-11.5108,0.0499,-0.2017,-0.055
4466.0,1.5939,-4.501,-11.5108,0.0499,-0.2017,-0.055
4471.0,1.5939,-4.501,-11.5108,0.18,-0.107,0.2229
4476.0,1.5939,-4.501,-11.5108,0.18,-0.107,0.2229
4481.0,1.9866,-4.2722,-11.0937,0.18,-0.107,0.2229
4486.0,1.9866,-4.2722,-11.0937,0.18,-0.107,0.2229
4491.0,1.9866,-4.2722,-11.0937,0.18,-0.107,0.2229
4496.0,1.9866,-4.2722,-11.0937,0.18,-0.107,0.2229
4501.0,1.9866,-4.2722,-11.0937,0.1813,0.2057,0.474
4506.0,1.9866,-4.2722,-11.0937,0.1813,0.2057,0.474
4511.0,2.6283,-3.6478,-10.9658,0.1813,0.2057,0.474
4516.0,2.6283,-3.6478,-10.9658,0.1813,0.2057,0.474
4522.0,2.6283,-3.6478,-10.9658,0.1813,0.2057,0.474
4526.0,2.6283,-3.6478,-10.9658,0.1813,0.2057,0.474
4531.0,2.6283,-3.6478,-10.9658,0.0585,0.4226,0.7531
4536.0,2.159,-3.8861,-11.0274,0.0585,0.4226,0.7531
4541.0,2.159,-3.8861,-11.0274,0.0585,0.4226,0.7531
4546.0,2.159,-3.8861,-11.0274,0.0585,0.4226,0.7531
4551.0,2.159,-3.8861,-11.0274,0.0585,0.4226,0.7531
4556.0,2.159,-3.8861,-11.0274,0.0585,0.4226,0.7531
4561.0,2.317,-3.3761,-10.1933,-0.0411,0.5118,0.8613
4566.0,2.317,-3.3761,-10.1933,-0.0411,0.5118,0.8613
4571.0,2.317,-3.3761,-10.1933,-0.0411,0.5118,0.8613
4576.0,2.317,-3.3761,-10.1933,-0.0411,0.5118,0.8613
4581.0,2.317,-3.3761,-10.1933,-0.0411,0.5118,0.8613
4586.0,2.317,-3.3761,-10.1933,-0.0411,0.5118,0.8613
4591.0,2.8151,-3.3236,-9.9943,-0.1229,0.5655,0.9602
4596.0,2.8151,-3.3236,-9.9943,-0.1229,0.5655,0.9602
4601.0,2.8151,-3.3236,-9.9943,-0.1229,0.5655,0.9602
4606.0,2.8151,-3.3236,-9.9943,-0.1229,0.5655,0.9602
4611.0,2.8151,-3.3236,-9.9943,-0.1229,0.5655,0.9602
4616.0,2.4032,-3.6049,-9.1934,-0.1229,0.5655,0.9602
4621.0,2.4032,-3.6049,-9.1934,-0.1229,0.5655,0.9602
4626.0,2.4032,-3.6049,-9.1934,-0.1541,0.5503,1.2156
4631.0,2.4032,-3.6049,-9.1934,-0.1541,0.5503,1.2156
4636.0,2.4032,-3.6049,-9.1934,-0.1541,0.5503,1.2156
4641.0,2.2979,-3.8289,-8.9232,-0.1541,0.5503,1.2156
4646.0,2.2979,-3.8289,-8.9232,-0.1541,0.5503,1.2156
4651.0,2.2979,-3.8289,-8.9232,-0.1541,0.5503,1.2156
4656.0,2.2979,-3.8289,-8.9232,-0.1522,0.5161,1.3903
4661.0,2.2979,-3.8289,-8.9232,-0.1522,0.5161,1.3903
4666.0,2.2979,-3.8289,-8.9232,-0.1522,0.5161,1.3903
4671.0,2.2117,-4.4295,-8.3735,-0.1522,0.5161,1.3903
4676.0,2.2117,-4.4295,-8.3735,-0.1522,0.5161,1.3903
4681.0,2.2117,-4.4295,-8.3735,-0.1522,0.5161,1.3903
4686.0,2.2117,-4.4295,-8.3735,-0.1809,0.5472,1.5625
4691.0,2.2117,-4.4295,-8.3735,-0.1809,0.5472,1.5625
4696.0,2.3697,-4.6965,-8.146,-0.1809,0.5472,1.5625
4701.0,2.3697,-4.6965,-8.146,-0.1809,0.5472,1.5625
4706.0,2.3697,-4.6965,-8.146,-0.1809,0.5472,1.5625
4711.0,2.3697,-4.6965,-8.146,-0.1809,0.5472,1.5625
4716.0,2.3697,-4.6965,-8.146,-0.2659,0.659,1.6982
4722.0,2.7241,-5.0349,-7.312,-0.2659,0.659,1.6982
4726.0,2.7241,-5.0349,-7.312,-0.2659,0.659,1.6982
4731.0,2.7241,-5.0349,-7.312,-0.2659,0.659,1.6982
4736.0,2.7241,-5.0349,-7.312,-0.2659,0.659,1.6982
4740.0,2.7241,-5.0349,-7.312,-0.2659,0.659,1.6982
4746.0,2.7241,-5.0349,-7.312,-0.3899,0.3481,1.8796
4751.0,3.3946,-5.054,-6.8949,-0.3899,0.3481,1.8796
4756.0,3.3946,-5.054,-6.8949,-0.3899,0.3481,1.8796
4761.0,3.3946,-5.054,-6.8949,-0.3899,0.3481,1.8796
4766.0,3.3946,-5.054,-6.8949,-0.3899,0.3481,1.8796
4771.0,3.3946,-5.054,-6.8949,-0.3899,0.3481,1.8796
4776.0,4.0124,-5.4544,-6.9281,-0.3899,0.3481,1.8796
4781.0,4.0124,-5.4544,-6.9281,-0.6745,0.4366,1.6988
4786.0,4.0124,-5.4544,-6.9281,-0.6745,0.4366,1.6988
4791.0,4.0124,-5.4544,-6.9281,-0.6745,0.4366,1.6988
4796.0,4.0124,-5.4544,-6.9281,-0.6745,0.4366,1.6988
4801.0,4.0124,-5.4544,-6.9281,-0.6745,0.4366,1.6988
4806.0,3.7346,-5.9835,-5.9139,-0.6745,0.4366,1.6988
4811.0,3.7346,-5.9835,-5.9139,-0.6745,0.4366,1.6988
4816.0,3.7346,-5.9835,-5.9139,-0.7747,0.5411,1.631
4821.0,3.7346,-5.9835,-5.9139,-0.7747,0.5411,1.631
4827.0,3.7346,-5.9835,-5.9139,-0.7747,0.5411,1.631
4831.0,3.7346,-5.9835,-5.9139,-0.7747,0.5411,1.631
4836.0,3.7969,-6.2743,-5.1983,-0.7747,0.5411,1.631
4841.0,3.7969,-6.2743,-5.1983,-0.7747,0.5411,1.631
4846.0,3.7969,-6.2743,-5.1983,-0.7484,0.5912,1.6627
4851.0,3.7969,-6.2743,-5.1983,-0.7484,0.5912,1.6627
4856.0,3.7969,-6.2743,-5.1983,-0.7484,0.5912,1.6627
4860.0,3.7969,-6.2743,-5.1983,-0.7484,0.5912,1.6627
4866.0,3.9837,-6.9369,-5.0325,-0.7484,0.5912,1.6627
4871.0,3.9837,-6.9369,-5.0325,-0.7484,0.5912,1.6627
4876.0,3.9837,-6.9369,-5.0325,-0.6739,0.7537,1.6474
4881.0,3.9837,-6.9369,-5.0325,-0.6739,0.7537,1.6474
4886.0,3.9837,-6.9369,-5.0325,-0.6739,0.7537,1.6474
4891.0,4.1465,-6.2504,-3.9804,-0.6739,0.7537,1.6474
4896.0,4.1465,-6.2504,-3.9804,-0.6739,0.7537,1.6474
4901.0,4.1465,-6.2504,-3.9804,-0.6739,0.7537,1.6474
4906.0,4.1465,-6.2504,-3.9804,-0.7845,1.0115,1.6945
4911.0,4.1465,-6.2504,-3.9804,-0.7845,1.0115,1.6945
4917.0,4.3141,-5.8357,-3.7814,-0.7845,1.0115,1.6945
4921.0,4.3141,-5.8357,-3.7814,-0.7845,1.0115,1.6945
4926.0,4.3141,-5.8357,-3.7814,-0.7845,1.0115,1.6945
4932.0,4.3141,-5.8357,-3.7814,-0.7845,1.0115,1.6945
4936.0,4.3141,-5.8357,-3.7814,-0.9684,1.1575,1.5925
4941.0,4.3141,-5.8357,-3.7814,-0.9684,1.1575,1.5925
4946.0,4.5392,-5.7452,-2.8762,-0.9684,1.1575,1.5925
4951.0,4.5392,-5.7452,-2.8762,-0.9684,1.1575,1.5925
4956.0,4.5392,-5.7452,-2.8762,-0.9684,1.1575,1.5925
4961.0,4.5392,-5.7452,-2.8762,-0.9684,1.1575,1.5925
4966.0,4.5392,-5.7452,-2.8762,-0.9684,1.1575,1.5925
4971.0,4.5392,-5.7452,-2.8762,-1.1602,1.1001,1.3933
4976.0,5.0229,-5.7738,-3.8382,-1.1602,1.1001,1.3933
4981.0,5.0229,-5.7738,-3.8382,-1.1602,1.1001,1.3933
4986.0,5.0229,-5.7738,-3.8382,-1.1602,1.1001,1.3933
4991.0,5.0229,-5.7738,-3.8382,-1.1602,1.1001,1.3933
4996.0,5.0229,-5.7738,-3.8382,-1.1602,1.1001,1.3933
5001.0,5.0565,-5.3781,-2.1227,-1.3129,1.2839,1.328
5007.0,5.0565,-5.3781,-2.1227,-1.3129,1.2839,1.328
5011.0,5.0565,-5.3781,-2.1227,-1.3129,1.2839,1.328
5016.0,5.0565,-5.3781,-2.1227,-1.3129,1.2839,1.328
5021.0,5.0565,-5.3781,-2.1227,-1.3129,1.2839,1.328
5026.0,5.0565,-5.3781,-2.1227,-1.3129,1.2839,1.328
5031.0,4.7117,-5.0969,-2.6535,-1.3129,1.2839,1.328
5036.0,4.7117,-5.0969,-2.6535,-1.2158,1.21,1.5131
5044.0,4.7117,-5.0969,-2.6535,-1.2158,1.21,1.5131
5048.0,4.7117,-5.0969,-2.6535,-1.2158,1.21,1.5131
5051.0,4.7117,-5.0969,-2.6535,-1.2158,1.21,1.5131
5056.0,4.3477,-5.2494,-3.8145,-1.2158,1.21,1.5131
5061.0,4.3477,-5.2494,-3.8145,-1.2158,1.21,1.5131
5066.0,4.3477,-5.2494,-3.8145,-1.0258,0.8459,1.2168
5071.0,4.3477,-5.2494,-3.8145,-1.0258,0.8459,1.2168
5077.0,4.3477,-5.2494,-3.8145,-1.0258,0.8459,1.2168
5081.0,4.3477,-5.2494,-3.8145,-1.0258,0.8459,1.2168
5086.0,4.2423,-4.9872,-2.6629,-1.0258,0.8459,1.2168
5091.0,4.2423,-4.9872,-2.6629,-1.0258,0.8459,1.2168
5096.0,4.2423,-4.9872,-2.6629,-0.9079,0.9089,1.182
5101.0,4.2423,-4.9872,-2.6629,-0.9079,0.9089,1.182
5106.0,4.2423,-4.9872,-2.6629,-0.9079,0.9089,1.182
5111.0,4.4435,-5.3924,-3.7055,-0.9079,0.9089,1.182
5116.0,4.4435,-5.3924,-3.7055,-0.9079,0.9089,1.182
5121.0,4.4435,-5.3924,-3.7055,-0.9079,0.9089,1.182
5126.0,4.4435,-5.3924,-3.7055,-0.7026,0.2729,0.7794
5131.0,4.4435,-5.3924,-3.7055,-0.7026,0.2729,0.7794
5136.0,6.1628,-6.5269,-2.8715,-0.7026,0.2729,0.7794
5143.0,6.1628,-6.5269,-2.8715,-0.7026,0.2729,0.7794
5146.0,6.1628,-6.5269,-2.8715,-0.7026,0.2729,0.7794
5151.0,6.1628,-6.5269,-2.8715,-0.7026,0.2729,0.7794
5157.0,6.1628,-6.5269,-2.8715,-0.5719,0.1172,0.4391
5161.0,6.1628,-6.5269,-2.8715,-0.5719,0.1172,0.4391
5167.0,8.3562,-8.548,-3.1605,-0.5719,0.1172,0.4391
5172.0,8.3562,-8.548,-3.1605,-0.5719,0.1172,0.4391
5177.0,8.3562,-8.548,-3.1605,-0.5719,0.1172,0.4391
5181.0,8.3562,-8.548,-3.1605,-0.5719,0.1172,0.4391
5186.0,8.3562,-8.548,-3.1605,-0.0911,0.0127,0.3109
5192.0,10.4252,-12.0421,-6.203,-0.0911,0.0127,0.3109
5197.0,10.4252,-12.0421,-6.203,-0.0911,0.0127,0.3109
5201.0,10.4252,-12.0421,-6.203,-0.0911,0.0127,0.3109
5206.0,10.4252,-12.0421,-6.203,-0.0911,0.0127,0.3109
5211.0,10.4252,-12.0421,-6.203,-0.0911,0.0127,0.3109
5216.0,10.4252,-12.0421,-6.203,-0.0911,0.0127,0.3109
5221.0,9.5584,-9.0104,-5.3595,0.5552,-1.2347,-0.1937
5227.0,9.5584,-9.0104,-5.3595,0.5552,-1.2347,-0.1937
5231.0,9.5584,-9.0104,-5.3595,0.5552,-1.2347,-0.1937
5236.0,9.5584,-9.0104,-5.3595,0.5552,-1.2347,-0.1937
5241.0,9.5584,-9.0104,-5.3595,0.5552,-1.2347,-0.1937
5246.0,7.4223,-6.2266,-3.0326,0.5552,-1.2347,-0.1937
5251.0,7.4223,-6.2266,-3.0326,0.491,-1.0966,-0.6048
5256.0,7.4223,-6.2266,-3.0326,0.491,-1.0966,-0.6048
5261.0,7.4223,-6.2266,-3.0326,0.491,-1.0966,-0.6048
5266.0,7.4223,-6.2266,-3.0326,0.491,-1.0966,-0.6048
5271.0,7.1206,-5.2208,-1.8336,0.491,-1.0966,-0.6048
5276.0,7.1206,-5.2208,-1.8336,0.491,-1.0966,-0.6048
5281.0,7.1206,-5.2208,-1.8336,0.5283,-0.7985,-0.9176
5286.0,7.1206,-5.2208,-1.8336,0.5283,-0.7985,-0.9176
5291.0,7.1206,-5.2208,-1.8336,0.5283,-0.7985,-0.9176
5296.0,7.3074,-4.9872,-1.336,0.5283,-0.7985,-0.9176
5301.0,7.3074,-4.9872,-1.336,0.5283,-0.7985,-0.9176
5306.0,7.3074,-4.9872,-1.336,0.5283,-0.7985,-0.9176
5311.0,7.3074,-4.9872,-1.336,0.6413,-0.9237,-1.3617
5316.0,7.3074,-4.9872,-1.336,0.6413,-0.9237,-1.3617
5321.0,7.3074,-4.9872,-1.336,0.6413,-0.9237,-1.3617
5326.0,6.6561,-5.1398,-2.9331,0.6413,-0.9237,-1.3617
5331.0,6.6561,-5.1398,-2.9331,0.6413,-0.9237,-1.3617
5336.0,6.6561,-5.1398,-2.9331,0.6413,-0.9237,-1.3617
5340.0,6.6561,-5.1398,-2.9331,0.6413,-0.9237,-1.3617
5346.0,6.6561,-5.1398,-2.9331,0.9449,-0.9751,-1.1387
5351.0,4.7691,-7.4707,-2.7009,0.9449,-0.9751,-1.1387
5357.0,4.7691,-7.4707,-2.7009,0.9449,-0.9751,-1.1387
5361.0,4.7691,-7.4707,-2.7009,0.9449,-0.9751,-1.1387
5366.0,4.7691,-7.4707,-2.7009,0.9449,-0.9751,-1.1387
5371.0,4.7691,-7.4707,-2.7009,0.9449,-0.9751,-1.1387
5377.0,4.7691,-7.4707,-2.7009,1.2338,-1.151,-0.5407
5381.0,3.7442,-7.3897,-0.5304,1.2338,-1.151,-0.5407
5386.0,3.7442,-7.3897,-0.5304,1.2338,-1.151,-0.5407
5391.0,3.7442,-7.3897,-0.5304,1.2338,-1.151,-0.5407
5396.0,3.7442,-7.3897,-0.5304,1.2338,-1.151,-0.5407
5401.0,3.7442,-7.3897,-0.5304,1.2338,-1.151,-0.5407
5406.0,2.1446,-6.8749,-3.7292,1.2338,-1.151,-0.5407
5411.0,2.1446,-6.8749,-3.7292,1.32,-1.0691,-1.3379
5416.0,2.1446,-6.8749,-3.7292,1.32,-1.0691,-1.3379
5421.0,2.1446,-6.8749,-3.7292,1.32,-1.0691,-1.3379
5426.0,2.1446,-6.8749,-3.7292,1.32,-1.0691,-1.3379
5431.0,3.4234,-6.2409,-1.6677,1.32,-1.0691,-1.3379
5436.0,3.4234,-6.2409,-1.6677,1.32,-1.0691,-1.3379
5440.0,3.4234,-6.2409,-1.6677,1.0017,-0.7466,-1.4619
5446.0,3.4234,-6.2409,-1.6677,1.0017,-0.7466,-1.4619
5451.0,3.4234,-6.2409,-1.6677,1.0017,-0.7466,-1.4619
5456.0,3.2078,-5.2828,-2.6819,1.0017,-0.7466,-1.4619
5461.0,3.2078,-5.2828,-2.6819,1.0017,-0.7466,-1.4619
5466.0,3.2078,-5.2828,-2.6819,1.0017,-0.7466,-1.4619
5471.0,3.2078,-5.2828,-2.6819,1.1703,-0.8358,-1.5535
5476.0,3.2078,-5.2828,-2.6819,1.1703,-0.8358,-1.5535
5481.0,3.2078,-5.2828,-2.6819,1.1703,-0.8358,-1.5535
5486.0,4.5297,-6.2171,-5.3689,1.1703,-0.8358,-1.5535
5491.0,4.5297,-6.2171,-5.3689,1.1703,-0.8358,-1.5535
5496.0,4.5297,-6.2171,-5.3689,1.1703,-0.8358,-1.5535
5501.0,4.5297,-6.2171,-5.3689,1.0054,-1.0502,-1.5083
5507.0,4.5297,-6.2171,-5.3689,1.0054,-1.0502,-1.5083
5511.0,4.0891,-7.2801,-4.5064,1.0054,-1.0502,-1.5083
5517.0,4.0891,-7.2801,-4.5064,1.0054,-1.0502,-1.5083
5521.0,4.0891,-7.2801,-4.5064,1.0054,-1.0502,-1.5083
5526.0,4.0891,-7.2801,-4.5064,1.0054,-1.0502,-1.5083
5531.0,4.0891,-7.2801,-4.5064,1.1049,-0.851,-1.4564
5536.0,4.4913,-5.545,-6.2788,1.1049,-0.851,-1.4564
5541.0,4.4913,-5.545,-6.2788,1.1049,-0.851,-1.4564
5546.0,4.4913,-5.545,-6.2788,1.1049,-0.851,-1.4564
5552.0,4.4913,-5.545,-6.2788,1.1049,-0.851,-1.4564
5557.0,4.4913,-5.545,-6.2788,1.1049,-0.851,-1.4564
5562.0,4.1944,-5.912,-5.0514,0.7531,-0.917,-1.0733
5566.0,4.1944,-5.912,-5.0514,0.7531,-0.917,-1.0733
5571.0,4.1944,-5.912,-5.0514,0.7531,-0.917,-1.0733
5576.0,4.1944,-5.912,-5.0514,0.7531,-0.917,-1.0733
5581.0,4.1944,-5.912,-5.0514,0.7531,-0.917,-1.0733
5586.0,4.1944,-5.912,-5.0514,0.7531,-0.917,-1.0733
5591.0,4.6111,-6.6318,-7.5963,0.7531,-0.917,-1.0733
5596.0,4.6111,-6.6318,-7.5963,0.6688,-0.8938,-1.0844
5600.0,4.6111,-6.6318,-7.5963,0.6688,-0.8938,-1.0844
5606.0,4.6111,-6.6318,-7.5963,0.6688,-0.8938,-1.0844
5619.0,3.9358,-7.404,-6.748,0.6688,-0.8938,-1.0844
5620.0,3.9358,-7.404,-6.748,0.6688,-0.8938,-1.0844
5620.0,3.9358,-7.404,-6.748,0.6688,-0.8938,-1.0844
5626.0,3.9358,-7.404,-6.748,0.5777,-0.8071,-1.1656
5631.0,3.9358,-7.404,-6.748,0.5777,-0.8071,-1.1656
5637.0,3.9358,-7.404,-6.748,0.5777,-0.8071,-1.1656
5641.0,3.9358,-7.404,-6.748,0.5777,-0.8071,-1.1656
5647.0,2.6283,-5.7785,-7.9091,0.5777,-0.8071,-1.1656
5651.0,2.6283,-5.7785,-7.9091,0.5777,-0.8071,-1.1656
5656.0,2.6283,-5.7785,-7.9091,0.5319,-0.6959,-1.5187
5661.0,2.6283,-5.7785,-7.9091,0.5319,-0.6959,-1.5187
5666.0,2.6283,-5.7785,-7.9091,0.5319,-0.6959,-1.5187
5670.0,2.6283,-5.7785,-7.9091,0.5319,-0.6959,-1.5187
5676.0,2.6235,-5.2303,-7.9138,0.5319,-0.6959,-1.5187
5681.0,2.6235,-5.2303,-7.9138,0.5319,-0.6959,-1.5187
5686.0,2.6235,-5.2303,-7.9138,0.2845,-0.6073,-1.3806
5691.0,2.6235,-5.2303,-7.9138,0.2845,-0.6073,-1.3806
5696.0,2.6235,-5.2303,-7.9138,0.2845,-0.6073,-1.3806
5701.0,2.7481,-5.5926,-7.8806,0.2845,-0.6073,-1.3806
5705.0,2.7481,-5.5926,-7.8806,0.2845,-0.6073,-1.3806
5711.0,2.7481,-5.5926,-7.8806,0.2845,-0.6073,-1.3806
5716.0,2.7481,-5.5926,-7.8806,0.1581,-0.6061,-1.3391
5721.0,2.7481,-5.5926,-7.8806,0.1581,-0.6061,-1.3391
5726.0,2.7816,-5.8739,-7.5157,0.1581,-0.6061,-1.3391
5731.0,2.7816,-5.8739,-7.5157,0.1581,-0.6061,-1.3391
5736.0,2.7816,-5.8739,-7.5157,0.1581,-0.6061,-1.3391
5741.0,2.7816,-5.8739,-7.5157,0.1581,-0.6061,-1.3391
5746.0,2.7816,-5.8739,-7.5157,-0.0221,-0.4479,-1.4374
5751.0,2.7816,-5.8739,-7.5157,-0.0221,-0.4479,-1.4374
5756.0,2.1111,-5.6546,-7.9944,-0.0221,-0.4479,-1.4374
5761.0,2.1111,-5.6546,-7.9944,-0.0221,-0.4479,-1.4374
5767.0,2.1111,-5.6546,-7.9944,-0.0221,-0.4479,-1.4374
5771.0,2.1111,-5.6546,-7.9944,-0.0221,-0.4479,-1.4374
5776.0,2.1111,-5.6546,-7.9944,-0.0221,-0.4479,-1.4374
5781.0,1.7519,-3.562,-9.2597,0.031,-0.3556,-1.6708
5786.0,1.7519,-3.562,-9.2597,0.031,-0.3556,-1.6708
5791.0,1.7519,-3.562,-9.2597,0.031,-0.3556,-1.6708
5796.0,1.7519,-3.562,-9.2597,0.031,-0.3556,-1.6708
5801.0,1.7519,-3.562,-9.2597,0.031,-0.3556,-1.6708
5806.0,1.7519,-3.562,-9.2597,0.031,-0.3556,-1.6708
5811.0,1.6944,-3.1282,-8.9564,0.042,-0.5383,-1.4338
5816.0,1.6944,-3.1282,-8.9564,0.042,-0.5383,-1.4338
5821.0,1.6944,-3.1282,-8.9564,0.042,-0.5383,-1.4338
5826.0,1.6944,-3.1282,-8.9564,0.042,-0.5383,-1.4338
5831.0,1.6944,-3.1282,-8.9564,0.042,-0.5383,-1.4338
5836.0,0.4971,-2.0175,-8.4351,0.042,-0.5383,-1.4338
5841.0,0.4971,-2.0175,-8.4351,-0.1504,-0.1155,-1.1302
5846.0,0.4971,-2.0175,-8.4351,-0.1504,-0.1155,-1.1302
5851.0,0.4971,-2.0175,-8.4351,-0.1504,-0.1155,-1.1302
5855.0,0.4971,-2.0175,-8.4351,-0.1504,-0.1155,-1.1302
5861.0,0.5067,-2.2654,-10.2881,-0.1504,-0.1155,-1.1302
5866.0,0.5067,-2.2654,-10.2881,-0.1504,-0.1155,-1.1302
5873.0,0.5067,-2.2654,-10.2881,-0.1504,-0.1155,-1.1302
5877.0,0.5067,-2.2654,-10.2881,-0.2585,-0.4534,-0.9231
5881.0,0.5067,-2.2654,-10.2881,-0.2585,-0.4534,-0.9231
5887.0,1.5651,-3.5524,-10.8473,-0.2585,-0.4534,-0.9231
5891.0,1.5651,-3.5524,-10.8473,-0.2585,-0.4534,-0.9231
5896.0,1.5651,-3.5524,-10.8473,-0.2585,-0.4534,-0.9231
5901.0,1.5651,-3.5524,-10.8473,-0.2585,-0.4534,-0.9231
5906.0,1.5651,-3.5524,-10.8473,-0.1779,-0.6824,-0.6317
5911.0,1.5651,-3.5524,-10.8473,-0.1779,-0.6824,-0.6317
5916.0,1.5699,-3.1425,-11.198,-0.1779,-0.6824,-0.6317
5921.0,1.5699,-3.1425,-11.198,-0.1779,-0.6824,-0.6317
5926.0,1.5699,-3.1425,-11.198,-0.1779,-0.6824,-0.6317
5931.0,1.5699,-3.1425,-11.198,-0.1779,-0.6824,-0.6317
5936.0,1.5699,-3.1425,-11.198,-0.2872,-0.7093,-0.4991
5942.0,0.636,-4.768,-11.3259,-0.2872,-0.7093,-0.4991
5946.0,0.636,-4.768,-11.3259,-0.2872,-0.7093,-0.4991
5951.0,0.636,-4.768,-11.3259,-0.2872,-0.7093,-0.4991
5956.0,0.636,-4.768,-11.3259,-0.2872,-0.7093,-0.4991
5961.0,0.636,-4.768,-11.3259,-0.2872,-0.7093,-0.4991
5966.0,0.636,-4.768,-11.3259,-0.2872,-0.7093,-0.4991
5971.0,0.8036,-4.3914,-11.6529,-0.3111,-0.2145,-0.5138
5976.0,0.8036,-4.3914,-11.6529,-0.3111,-0.2145,-0.5138
5981.0,0.8036,-4.3914,-11.6529,-0.3111,-0.2145,-0.5138
5987.0,0.8036,-4.3914,-11.6529,-0.3111,-0.2145,-0.5138
5991.0,0.8036,-4.3914,-11.6529,-0.3111,-0.2145,-0.5138
5996.0,1.2299,-4.4534,-11.9847,-0.3111,-0.2145,-0.5138
6001.0,1.2299,-4.4534,-11.9847,-0.0936,0.1068,0.0855
6006.0,1.2299,-4.4534,-11.9847,-0.0936,0.1068,0.0855
6011.0,1.2299,-4.4534,-11.9847,-0.0936,0.1068,0.0855
6017.0,1.2299,-4.4534,-11.9847,-0.0936,0.1068,0.0855
6021.0,0.7845,-5.1493,-11.6624,-0.0936,0.1068,0.0855
6026.0,0.7845,-5.1493,-11.6624,-0.0936,0.1068,0.0855
6031.0,0.7845,-5.1493,-11.6624,0.1288,0.3976,0.5772
6037.0,0.7845,-5.1493,-11.6624,0.1288,0.3976,0.5772
6043.0,0.7845,-5.1493,-11.6624,0.1288,0.3976,0.5772
6046.0,1.3448,-4.4581,-11.4966,0.1288,0.3976,0.5772
6051.0,1.3448,-4.4581,-11.4966,0.1288,0.3976,0.5772
6056.0,1.3448,-4.4581,-11.4966,0.1288,0.3976,0.5772
6061.0,1.3448,-4.4581,-11.4966,0.1917,0.747,0.9621
6066.0,1.3448,-4.4581,-11.4966,0.1917,0.747,0.9621
6071.0,1.3448,-4.4581,-11.4966,0.1917,0.747,0.9621
6076.0,1.9914,-3.7622,-10.9895,0.1917,0.747,0.9621
6081.0,1.9914,-3.7622,-10.9895,0.1917,0.747,0.9621
6086.0,1.9914,-3.7622,-10.9895,0.1917,0.747,0.9621
6091.0,1.9914,-3.7622,-10.9895,0.0451,0.882,1.1252
6096.0,1.9914,-3.7622,-10.9895,0.0451,0.882,1.1252
6101.0,2.0057,-3.2283,-10.7241,0.0451,0.882,1.1252
6106.0,2.0057,-3.2283,-10.7241,0.0451,0.882,1.1252
6111.0,2.0057,-3.2283,-10.7241,0.0451,0.882,1.1252
6116.0,2.0057,-3.2283,-10.7241,0.0451,0.882,1.1252
6121.0,2.0057,-3.2283,-10.7241,0.0451,0.882,1.1252
6126.0,2.0872,-3.4476,-9.9374,-0.2249,0.9718,1.0769
6131.0,2.0872,-3.4476,-9.9374,-0.2249,0.9718,1.0769
6136.0,2.0872,-3.4476,-9.9374,-0.2249,0.9718,1.0769
6141.0,2.0872,-3.4476,-9.9374,-0.2249,0.9718,1.0769
6146.0,2.0872,-3.4476,-9.9374,-0.2249,0.9718,1.0769
6151.0,1.613,-3.1091,-9.5014,-0.2249,0.9718,1.0769
6156.0,1.613,-3.1091,-9.5014,-0.3929,0.8948,1.2528
6161.0,1.613,-3.1091,-9.5014,-0.3929,0.8948,1.2528
6167.0,1.613,-3.1091,-9.5014,-0.3929,0.8948,1.2528
6171.0,1.613,-3.1091,-9.5014,-0.3929,0.8948,1.2528
6176.0,1.613,-3.1091,-9.5014,-0.3929,0.8948,1.2528
6181.0,1.4981,-3.3427,-8.6152,-0.3929,0.8948,1.2528
6186.0,1.4981,-3.3427,-8.6152,-0.3929,0.8948,1.2528
6191.0,1.4981,-3.3427,-8.6152,-0.5181,0.7507,1.4343
6196.0,1.4981,-3.3427,-8.6152,-0.5181,0.7507,1.4343
6201.0,1.4981,-3.3427,-8.6152,-0.5181,0.7507,1.4343
6207.0,1.5172,-3.5858,-8.0702,-0.5181,0.7507,1.4343
6212.0,1.5172,-3.5858,-8.0702,-0.5181,0.7507,1.4343
6216.0,1.5172,-3.5858,-8.0702,-0.5181,0.7507,1.4343
6221.0,1.5172,-3.5858,-8.0702,-0.5542,0.8258,1.4874
6226.0,1.5172,-3.5858,-8.0702,-0.5542,0.8258,1.4874
6231.0,1.7567,-4.6726,-7.1935,-0.5542,0.8258,1.4874
6236.0,1.7567,-4.6726,-7.1935,-0.5542,0.8258,1.4874
6241.0,1.7567,-4.6726,-7.1935,-0.5542,0.8258,1.4874
6246.0,1.7567,-4.6726,-7.1935,-0.5542,0.8258,1.4874
6251.0,1.7567,-4.6726,-7.1935,-0.4528,0.802,1.6927
6255.0,1.7567,-4.6726,-7.1935,-0.4528,0.802,1.6927
6261.0,2.7241,-5.0921,-6.7101,-0.4528,0.802,1.6927
6266.0,2.7241,-5.0921,-6.7101,-0.4528,0.802,1.6927
6271.0,2.7241,-5.0921,-6.7101,-0.4528,0.802,1.6927
6276.0,2.7241,-5.0921,-6.7101,-0.4528,0.802,1.6927
6281.0,2.7241,-5.0921,-6.7101,-0.4564,0.5827,1.9126
6286.0,3.658,-5.3305,-6.5253,-0.4564,0.5827,1.9126
6290.0,3.658,-5.3305,-6.5253,-0.4564,0.5827,1.9126
6296.0,3.658,-5.3305,-6.5253,-0.4564,0.5827,1.9126
6302.0,3.658,-5.3305,-6.5253,-0.4564,0.5827,1.9126
6306.0,3.658,-5.3305,-6.5253,-0.4564,0.5827,1.9126
6311.0,3.5,-5.9883,-6.004,-0.6049,0.5582,1.9957
6316.0,3.5,-5.9883,-6.004,-0.6049,0.5582,1.9957
6322.0,3.5,-5.9883,-6.004,-0.6049,0.5582,1.9957
6326.0,3.5,-5.9883,-6.004,-0.6049,0.5582,1.9957
6331.0,3.5,-5.9883,-6.004,-0.6049,0.5582,1.9957
6336.0,3.5,-5.9883,-6.004,-0.6049,0.5582,1.9957
6341.0,3.8496,-5.8929,-6.113,-0.6049,0.5582,1.9957
6346.0,3.8496,-5.8929,-6.113,-0.7374,0.736,1.7586
6351.0,3.8496,-5.8929,-6.113,-0.7374,0.736,1.7586
6356.0,3.8496,-5.8929,-6.113,-0.7374,0.736,1.7586
6361.0,3.8496,-5.8929,-6.113,-0.7374,0.736,1.7586
6366.0,4.6398,-5.7261,-5.2979,-0.7374,0.736,1.7586
6371.0,4.6398,-5.7261,-5.2979,-0.7374,0.736,1.7586
6376.0,4.6398,-5.7261,-5.2979,-0.7374,0.736,1.7586
6381.0,4.6398,-5.7261,-5.2979,-0.9353,0.9486,1.4141
6386.0,4.6398,-5.7261,-5.2979,-0.9353,0.9486,1.4141
6391.0,4.6398,-5.7261,-5.2979,-0.9353,0.9486,1.4141
6396.0,5.0469,-5.9406,-4.5823,-0.9353,0.9486,1.4141
6402.0,5.0469,-5.9406,-4.5823,-0.9353,0.9486,1.4141
6406.0,5.0469,-5.9406,-4.5823,-0.9353,0.9486,1.4141
6411.0,5.0469,-5.9406,-4.5823,-0.9885,1.0634,1.4758
6416.0,5.0469,-5.9406,-4.5823,-0.9885,1.0634,1.4758
6421.0,4.9511,-6.0693,-3.0942,-0.9885,1.0634,1.4758
6426.0,4.9511,-6.0693,-3.0942,-0.9885,1.0634,1.4758
6431.0,4.9511,-6.0693,-3.0942,-0.9885,1.0634,1.4758
6436.0,4.9511,-6.0693,-3.0942,-0.9885,1.0634,1.4758
6441.0,4.9511,-6.0693,-3.0942,-1.0019,1.2461,1.6719
6446.0,4.9511,-6.0693,-3.0942,-1.0019,1.2461,1.6719
6451.0,4.8888,-5.8977,-2.7719,-1.0019,1.2461,1.6719
6456.0,4.8888,-5.8977,-2.7719,-1.0019,1.2461,1.6719
6461.0,4.8888,-5.8977,-2.7719,-1.0019,1.2461,1.6719
6466.0,4.8888,-5.8977,-2.7719,-1.0019,1.2461,1.6719
6471.0,4.8888,-5.8977,-2.7719,-1.0551,1.0927,1.6212
6476.0,5.181,-5.6975,-4.3263,-1.0551,1.0927,1.6212
6481.0,5.181,-5.6975,-4.3263,-1.0551,1.0927,1.6212
6486.0,5.181,-5.6975,-4.3263,-1.0551,1.0927,1.6212
6491.0,5.181,-5.6975,-4.3263,-1.0551,1.0927,1.6212
6496.0,5.181,-5.6975,-4.3263,-1.0551,1.0927,1.6212
6501.0,5.1283,-5.0206,-2.6677,-1.2371,1.2497,1.24
6506.0,5.1283,-5.0206,-2.6677,-1.2371,1.2497,1.24
6511.0,5.1283,-5.0206,-2.6677,-1.2371,1.2497,1.24
6516.0,5.1283,-5.0206,-2.6677,-1.2371,1.2497,1.24
6521.0,5.1283,-5.0206,-2.6677,-1.2371,1.2497,1.24
6526.0,5.1283,-5.0206,-2.6677,-1.2371,1.2497,1.24
6531.0,4.6111,-4.7155,-2.8193,-1.3996,1.2113,0.9932
6536.0,4.6111,-4.7155,-2.8193,-1.3996,1.2113,0.9932
6541.0,4.6111,-4.7155,-2.8193,-1.3996,1.2113,0.9932
6546.0,4.6111,-4.7155,-2.8193,-1.3996,1.2113,0.9932
6551.0,4.6111,-4.7155,-2.8193,-1.3996,1.2113,0.9932
6556.0,4.8553,-4.9348,-3.9472,-1.3996,1.2113,0.9932
6561.0,4.8553,-4.9348,-3.9472,-1.3996,1.2113,0.9932
6566.0,4.8553,-4.9348,-3.9472,-1.2371,1.0787,0.7421
6571.0,4.8553,-4.9348,-3.9472,-1.2371,1.0787,0.7421
6576.0,4.8553,-4.9348,-3.9472,-1.2371,1.0787,0.7421
6581.0,4.6446,-5.2018,-3.8856,-1.2371,1.0787,0.7421
6586.0,4.6446,-5.2018,-3.8856,-1.2371,1.0787,0.7421
6591.0,4.6446,-5.2018,-3.8856,-1.2371,1.0787,0.7421
6595.0,4.6446,-5.2018,-3.8856,-0.771,0.9522,0.5705
6601.0,4.6446,-5.2018,-3.8856,-0.771,0.9522,0.5705
6606.0,4.6446,-5.2018,-3.8856,-0.771,0.9522,0.5705
6611.0,4.4578,-5.3591,-3.2838,-0.771,0.9522,0.5705
6616.0,4.4578,-5.3591,-3.2838,-0.771,0.9522,0.5705
6621.0,4.4578,-5.3591,-3.2838,-0.771,0.9522,0.5705
6626.0,4.4578,-5.3591,-3.2838,-0.3611,0.8388,0.6161
6631.0,4.4578,-5.3591,-3.2838,-0.3611,0.8388,0.6161
6636.0,5.1331,-6.5031,-3.9425,-0.3611,0.8388,0.6161
6641.0,5.1331,-6.5031,-3.9425,-0.3611,0.8388,0.6161
6646.0,5.1331,-6.5031,-3.9425,-0.3611,0.8388,0.6161
6651.0,5.1331,-6.5031,-3.9425,-0.3611,0.8388,0.6161
6656.0,5.1331,-6.5031,-3.9425,0.127,-0.3268,0.5006
6661.0,5.1331,-6.5031,-3.9425,0.127,-0.3268,0.5006
6667.0,7.5134,-9.2059,-6.9044,0.127,-0.3268,0.5006
6672.0,7.5134,-9.2059,-6.9044,0.127,-0.3268,0.5006
6676.0,7.5134,-9.2059,-6.9044,0.127,-0.3268,0.5006
6681.0,7.5134,-9.2059,-6.9044,0.127,-0.3268,0.5006
6686.0,7.5134,-9.2059,-6.9044,0.5643,-0.8203,0.106
6691.0,9.4865,-11.2032,-7.4873,0.5643,-0.8203,0.106
6697.0,9.4865,-11.2032,-7.4873,0.5643,-0.8203,0.106
6702.0,9.4865,-11.2032,-7.4873,0.5643,-0.8203,0.106
6707.0,9.4865,-11.2032,-7.4873,0.5643,-0.8203,0.106
6711.0,9.4865,-11.2032,-7.4873,0.5643,-0.8203,0.106
6716.0,9.3189,-8.405,-5.4543,0.5039,-1.2009,-0.6026
6721.0,9.3189,-8.405,-5.4543,0.5039,-1.2009,-0.6026
6726.0,9.3189,-8.405,-5.4543,0.5039,-1.2009,-0.6026
6731.0,9.3189,-8.405,-5.4543,0.5039,-1.2009,-0.6026
6736.0,9.3189,-8.405,-5.4543,0.5039,-1.2009,-0.6026
6741.0,7.3888,-4.9634,-3.1937,0.5039,-1.2009,-0.6026
6746.0,7.3888,-4.9634,-3.1937,0.5039,-1.2009,-0.6026
6751.0,7.3888,-4.9634,-3.1937,0.6291,-0.2589,-1.1872
6756.0,7.3888,-4.9634,-3.1937,0.6291,-0.2589,-1.1872
6761.0,7.3888,-4.9634,-3.1937,0.6291,-0.2589,-1.1872
6766.0,7.3888,-4.9634,-3.1937,0.6291,-0.2589,-1.1872
6771.0,6.0862,-3.2664,-2.3217,0.6291,-0.2589,-1.1872
6776.0,6.0862,-3.2664,-2.3217,0.6291,-0.2589,-1.1872
6781.0,6.0862,-3.2664,-2.3217,0.8453,-0.6786,-1.3735
6786.0,6.0862,-3.2664,-2.3217,0.8453,-0.6786,-1.3735
6791.0,6.0862,-3.2664,-2.3217,0.8453,-0.6786,-1.3735
6796.0,3.0929,-4.8633,-2.2364,0.8453,-0.6786,-1.3735
6801.0,3.0929,-4.8633,-2.2364,0.8453,-0.6786,-1.3735
6806.0,3.0929,-4.8633,-2.2364,0.8453,-0.6786,-1.3735
6812.0,3.0929,-4.8633,-2.2364,1.1813,-1.2284,-1.164
6816.0,3.0929,-4.8633,-2.2364,1.1813,-1.2284,-1.164
6821.0,3.0929,-4.8633,-2.2364,1.1813,-1.2284,-1.164
6826.0,3.0594,-7.1991,-3.8904,1.1813,-1.2284,-1.164
6832.0,3.0594,-7.1991,-3.8904,1.1813,-1.2284,-1.164
6836.0,3.0594,-7.1991,-3.8904,1.1813,-1.2284,-1.164
6841.0,3.0594,-7.1991,-3.8904,1.491,-0.8558,-0.9013
6846.0,3.0594,-7.1991,-3.8904,1.491,-0.8558,-0.9013
6851.0,3.0594,-7.1991,-3.8904,1.491,-0.8558,-0.9013
6856.0,3.5814,-6.7271,-3.17,1.491,-0.8558,-0.9013
6861.0,3.5814,-6.7271,-3.17,1.491,-0.8558,-0.9013
6866.0,3.5814,-6.7271,-3.17,1.491,-0.8558,-0.9013
6871.0,3.5814,-6.7271,-3.17,1.4666,-0.8222,-1.4285
6876.0,3.5814,-6.7271,-3.17,1.4666,-0.8222,-1.4285
6881.0,3.5814,-6.7271,-3.17,1.4666,-0.8222,-1.4285
6886.0,4.999,-5.0301,-4.151,1.4666,-0.8222,-1.4285
6890.0,4.999,-5.0301,-4.151,1.4666,-0.8222,-1.4285
6896.0,4.999,-5.0301,-4.151,1.4666,-0.8222,-1.4285
6901.0,4.999,-5.0301,-4.151,1.4666,-0.8222,-1.4285
6906.0,4.999,-5.0301,-4.151,1.5558,-0.7146,-1.8243
6911.0,5.8946,-3.6049,-4.8097,1.5558,-0.7146,-1.8243
6916.0,5.8946,-3.6049,-4.8097,1.5558,-0.7146,-1.8243
6921.0,5.8946,-3.6049,-4.8097,1.5558,-0.7146,-1.8243
6926.0,5.8946,-3.6049,-4.8097,1.5558,-0.7146,-1.8243
6931.0,5.8946,-3.6049,-4.8097,1.5558,-0.7146,-1.8243
6936.0,5.8946,-3.6049,-4.8097,1.1331,-0.9132,-1.9593
6941.0,5.636,-3.9528,-7.3167,1.1331,-0.9132,-1.9593
6946.0,5.636,-3.9528,-7.3167,1.1331,-0.9132,-1.9593
6951.0,5.636,-3.9528,-7.3167,1.1331,-0.9132,-1.9593
6956.0,5.636,-3.9528,-7.3167,1.1331,-0.9132,-1.9593
6961.0,5.636,-3.9528,-7.3167,1.1331,-0.9132,-1.9593
6966.0,5.5785,-5.0158,-2.5397,0.8337,-1.196,-0.8897
6971.0,5.5785,-5.0158,-2.5397,0.8337,-1.196,-0.8897
6976.0,5.5785,-5.0158,-2.5397,0.8337,-1.196,-0.8897
6980.0,5.5785,-5.0158,-2.5397,0.8337,-1.196,-0.8897
6986.0,5.5785,-5.0158,-2.5397,0.8337,-1.196,-0.8897
6991.0,5.5785,-5.0158,-2.5397,0.8337,-1.196,-0.8897
6997.0,3.8735,-6.9321,-8.1081,1.028,-1.3273,-0.7596
7002.0,3.8735,-6.9321,-8.1081,1.028,-1.3273,-0.7596
7006.0,3.8735,-6.9321,-8.1081,1.028,-1.3273,-0.7596
7011.0,3.8735,-6.9321,-8.1081,1.028,-1.3273,-0.7596
7016.0,3.8735,-6.9321,-8.1081,1.028,-1.3273,-0.7596
7021.0,4.7212,-8.0142,-5.8855,1.028,-1.3273,-0.7596
7026.0,4.7212,-8.0142,-5.8855,1.028,-1.3273,-0.7596
7031.0,4.7212,-8.0142,-5.8855,0.5643,-0.9957,-1.1408
7036.0,4.7212,-8.0142,-5.8855,0.5643,-0.9957,-1.1408
7040.0,4.7212,-8.0142,-5.8855,0.5643,-0.9957,-1.1408
7046.0,3.0163,-7.0322,-6.1414,0.5643,-0.9957,-1.1408
7051.0,3.0163,-7.0322,-6.1414,0.5643,-0.9957,-1.1408
7056.0,3.0163,-7.0322,-6.1414,0.5643,-0.9957,-1.1408
7061.0,3.0163,-7.0322,-6.1414,0.5014,-0.9853,-1.7199
7066.0,3.0163,-7.0322,-6.1414,0.5014,-0.9853,-1.7199
7071.0,3.0163,-7.0322,-6.1414,0.5014,-0.9853,-1.7199
7077.0,2.9061,-6.341,-7.7195,0.5014,-0.9853,-1.7199
7081.0,2.9061,-6.341,-7.7195,0.5014,-0.9853,-1.7199
7086.0,2.9061,-6.341,-7.7195,0.5014,-0.9853,-1.7199
7091.0,2.9061,-6.341,-7.7195,0.4361,-0.8802,-1.4108
7096.0,2.9061,-6.341,-7.7195,0.4361,-0.8802,-1.4108
7101.0,2.9253,-6.2695,-6.8428,0.4361,-0.8802,-1.4108
7106.0,2.9253,-6.2695,-6.8428,0.4361,-0.8802,-1.4108
7111.0,2.9253,-6.2695,-6.8428,0.4361,-0.8802,-1.4108
7116.0,2.9253,-6.2695,-6.8428,0.4361,-0.8802,-1.4108
7121.0,2.9253,-6.2695,-6.8428,0.3658,-0.8008,-1.2874
7126.0,2.9253,-6.2695,-6.8428,0.3658,-0.8008,-1.2874
7132.0,3.6101,-5.3257,-8.4825,0.3658,-0.8008,-1.2874
7136.0,3.6101,-5.3257,-8.4825,0.3658,-0.8008,-1.2874
7141.0,3.6101,-5.3257,-8.4825,0.3658,-0.8008,-1.2874
7146.0,3.6101,-5.3257,-8.4825,0.3658,-0.8008,-1.2874
7151.0,3.6101,-5.3257,-8.4825,0.0237,-0.7428,-1.4059
7156.0,2.0919,-5.9835,-8.1318,0.0237,-0.7428,-1.4059
7162.0,2.0919,-5.9835,-8.1318,0.0237,-0.7428,-1.4059
7166.0,2.0919,-5.9835,-8.1318,0.0237,-0.7428,-1.4059
7172.0,2.0919,-5.9835,-8.1318,0.0237,-0.7428,-1.4059
7176.0,2.0919,-5.9835,-8.1318,0.0237,-0.7428,-1.4059
7181.0,1.5077,-5.4115,-8.3593,0.0237,-0.7428,-1.4059
7186.0,1.5077,-5.4115,-8.3593,0.0622,-0.6432,-1.3833
7192.0,1.5077,-5.4115,-8.3593,0.0622,-0.6432,-1.3833
7196.0,1.5077,-5.4115,-8.3593,0.0622,-0.6432,-1.3833
7201.0,1.5077,-5.4115,-8.3593,0.0622,-0.6432,-1.3833
7206.0,1.5077,-5.4115,-8.3593,0.0622,-0.6432,-1.3833
7211.0,2.1542,-4.2961,-8.364,0.0622,-0.6432,-1.3833
7216.0,2.1542,-4.2961,-8.364,0.0622,-0.3958,-1.6172
7221.0,2.1542,-4.2961,-8.364,0.0622,-0.3958,-1.6172
7226.0,2.1542,-4.2961,-8.364,0.0622,-0.3958,-1.6172
7231.0,2.1542,-4.2961,-8.364,0.0622,-0.3958,-1.6172
7236.0,1.9818,-3.1472,-9.5346,0.0622,-0.3958,-1.6172
7241.0,1.9818,-3.1472,-9.5346,0.0622,-0.3958,-1.6172
7246.0,1.9818,-3.1472,-9.5346,0.0836,-0.4752,-1.2758
7251.0,1.9818,-3.1472,-9.5346,0.0836,-0.4752,-1.2758
7256.0,1.9818,-3.1472,-9.5346,0.0836,-0.4752,-1.2758
7261.0,1.1532,-2.5514,-9.2028,0.0836,-0.4752,-1.2758
7266.0,1.1532,-2.5514,-9.2028,0.0836,-0.4752,-1.2758
7272.0,1.1532,-2.5514,-9.2028,0.0836,-0.4752,-1.2758
7276.0,1.1532,-2.5514,-9.2028,-0.0917,-0.6914,-1.0363
7281.0,1.1532,-2.5514,-9.2028,-0.0917,-0.6914,-1.0363
7286.0,1.1532,-2.5514,-9.2028,-0.0917,-0.6914,-1.0363
7291.0,-0.0297,-2.785,-11.0274,-0.0917,-0.6914,-1.0363
7296.0,-0.0297,-2.785,-11.0274,-0.0917,-0.6914,-1.0363
7301.0,-0.0297,-2.785,-11.0274,-0.0917,-0.6914,-1.0363
7306.0,-0.0297,-2.785,-11.0274,-0.0917,-0.6914,-1.0363
7311.0,-0.0297,-2.785,-11.0274,-0.118,-0.8161,-0.8543
7316.0,0.4397,-4.0863,-9.5725,-0.118,-0.8161,-0.8543
7321.0,0.4397,-4.0863,-9.5725,-0.118,-0.8161,-0.8543
7326.0,0.4397,-4.0863,-9.5725,-0.118,-0.8161,-0.8543
7330.0,0.4397,-4.0863,-9.5725,-0.118,-0.8161,-0.8543
7336.0,0.4397,-4.0863,-9.5725,-0.118,-0.8161,-0.8543
7341.0,-0.1063,-3.6287,-12.1411,-0.1681,-0.5668,-0.6796
7346.0,-0.1063,-3.6287,-12.1411,-0.1681,-0.5668,-0.6796
7351.0,-0.1063,-3.6287,-12.1411,-0.1681,-0.5668,-0.6796
7356.0,-0.1063,-3.6287,-12.1411,-0.1681,-0.5668,-0.6796
7361.0,-0.1063,-3.6287,-12.1411,-0.1681,-0.5668,-0.6796
7366.0,-0.1063,-3.6287,-12.1411,-0.1681,-0.5668,-0.6796
7371.0,-0.0297,-4.0244,-11.5108,-0.1882,-0.375,-0.4908
7377.0,-0.0297,-4.0244,-11.5108,-0.1882,-0.375,-0.4908
7382.0,-0.0297,-4.0244,-11.5108,-0.1882,-0.375,-0.4908
7386.0,-0.0297,-4.0244,-11.5108,-0.1882,-0.375,-0.4908
7391.0,-0.0297,-4.0244,-11.5108,-0.1882,-0.375,-0.4908
7396.0,-0.0297,-4.0244,-11.5108,-0.1882,-0.375,-0.4908
7401.0,-0.1207,-3.8146,-11.6719,-0.1882,-0.375,-0.4908
7406.0,-0.1207,-3.8146,-11.6719,-0.1656,-0.1331,-0.186
7411.0,-0.1207,-3.8146,-11.6719,-0.1656,-0.1331,-0.186
7416.0,-0.1207,-3.8146,-11.6719,-0.1656,-0.1331,-0.186
7421.0,-0.1207,-3.8146,-11.6719,-0.1656,-0.1331,-0.186
7426.0,-0.8965,-4.2818,-11.7288,-0.1656,-0.1331,-0.186
7431.0,-0.8965,-4.2818,-11.7288,-0.1656,-0.1331,-0.186
7436.0,-0.8965,-4.2818,-11.7288,-0.0038,0.2145,0.219
7441.0,-0.8965,-4.2818,-11.7288,-0.0038,0.2145,0.219
7447.0,-0.8965,-4.2818,-11.7288,-0.0038,0.2145,0.219
7451.0,-0.0584,-4.0529,-11.8804,-0.0038,0.2145,0.219
7456.0,-0.0584,-4.0529,-11.8804,-0.0038,0.2145,0.219
7461.0,-0.0584,-4.0529,-11.8804,-0.0038,0.2145,0.219
7466.0,-0.0584,-4.0529,-11.8804,0.1276,0.4582,0.6307
7471.0,-0.0584,-4.0529,-11.8804,0.1276,0.4582,0.6307
7476.0,-0.341,-4.4343,-11.4349,0.1276,0.4582,0.6307
7481.0,-0.341,-4.4343,-11.4349,0.1276,0.4582,0.6307
7486.0,-0.341,-4.4343,-11.4349,0.1276,0.4582,0.6307
7491.0,-0.341,-4.4343,-11.4349,0.1276,0.4582,0.6307
7496.0,-0.341,-4.4343,-11.4349,0.1722,0.7557,0.9288
7501.0,-0.341,-4.4343,-11.4349,0.1722,0.7557,0.9288
7506.0,-0.068,-3.7812,-10.8615,0.1722,0.7557,0.9288
7511.0,-0.068,-3.7812,-10.8615,0.1722,0.7557,0.9288
7516.0,-0.068,-3.7812,-10.8615,0.1722,0.7557,0.9288
7521.0,-0.068,-3.7812,-10.8615,0.1722,0.7557,0.9288
7526.0,-0.068,-3.7812,-10.8615,0.1722,0.7557,0.9288
7531.0,0.7079,-3.6049,-10.6814,0.0891,1.0275,1.0748
7536.0,0.7079,-3.6049,-10.6814,0.0891,1.0275,1.0748
7541.0,0.7079,-3.6049,-10.6814,0.0891,1.0275,1.0748
7546.0,0.7079,-3.6049,-10.6814,0.0891,1.0275,1.0748
7551.0,0.7079,-3.6049,-10.6814,0.0891,1.0275,1.0748
7556.0,1.2251,-3.1902,-9.9706,0.0891,1.0275,1.0748
7561.0,1.2251,-3.1902,-9.9706,-0.0056,1.0526,1.1903
7566.0,1.2251,-3.1902,-9.9706,-0.0056,1.0526,1.1903
7571.0,1.2251,-3.1902,-9.9706,-0.0056,1.0526,1.1903
7576.0,1.2251,-3.1902,-9.9706,-0.0056,1.0526,1.1903
7581.0,1.2251,-3.1902,-9.9706,-0.0056,1.0526,1.1903
7586.0,1.5077,-3.4237,-9.5014,-0.0056,1.0526,1.1903
7591.0,1.5077,-3.4237,-9.5014,-0.1919,1.0526,1.2874
7596.0,1.5077,-3.4237,-9.5014,-0.1919,1.0526,1.2874
7601.0,1.5077,-3.4237,-9.5014,-0.1919,1.0526,1.2874
7606.0,1.5077,-3.4237,-9.5014,-0.1919,1.0526,1.2874
7611.0,1.9339,-4.1006,-8.5394,-0.1919,1.0526,1.2874
7616.0,1.9339,-4.1006,-8.5394,-0.1919,1.0526,1.2874
7621.0,1.9339,-4.1006,-8.5394,-0.1662,1.019,1.3913
7626.0,1.9339,-4.1006,-8.5394,-0.1662,1.019,1.3913
7631.0,1.9339,-4.1006,-8.5394,-0.1662,1.019,1.3913
7636.0,2.4224,-3.9528,-8.1318,-0.1662,1.019,1.3913
7641.0,2.4224,-3.9528,-8.1318,-0.1662,1.019,1.3913
7646.0,2.4224,-3.9528,-8.1318,-0.1662,1.019,1.3913
7651.0,2.4224,-3.9528,-8.1318,-0.2609,0.9176,1.7034
7656.0,2.4224,-3.9528,-8.1318,-0.2609,0.9176,1.7034
7661.0,2.4224,-3.9528,-8.1318,-0.2609,0.9176,1.7034
7666.0,2.7098,-3.8623,-7.8996,-0.2609,0.9176,1.7034
7671.0,2.7098,-3.8623,-7.8996,-0.2609,0.9176,1.7034
7676.0,2.7098,-3.8623,-7.8996,-0.2609,0.9176,1.7034
7681.0,2.7098,-3.8623,-7.8996,-0.435,0.7838,1.9276
7686.0,2.7098,-3.8623,-7.8996,-0.435,0.7838,1.9276
7692.0,2.9827,-4.6965,-7.0039,-0.435,0.7838,1.9276
7696.0,2.9827,-4.6965,-7.0039,-0.435,0.7838,1.9276
7701.0,2.9827,-4.6965,-7.0039,-0.435,0.7838,1.9276
7706.0,2.9827,-4.6965,-7.0039,-0.435,0.7838,1.9276
7711.0,2.9827,-4.6965,-7.0039,-0.5462,0.6946,2.04
7716.0,3.4856,-5.5783,-6.312,-0.5462,0.6946,2.04
7721.0,3.4856,-5.5783,-6.312,-0.5462,0.6946,2.04
7726.0,3.4856,-5.5783,-6.312,-0.5462,0.6946,2.04
7731.0,3.4856,-5.5783,-6.312,-0.5462,0.6946,2.04
7736.0,3.4856,-5.5783,-6.312,-0.5462,0.6946,2.04
7741.0,3.4856,-5.5783,-6.312,-0.5462,0.6946,2.04
7746.0,3.8017,-6.2123,-5.5727,-0.6653,0.7148,2.0767
7751.0,3.8017,-6.2123,-5.5727,-0.6653,0.7148,2.0767
7756.0,3.8017,-6.2123,-5.5727,-0.6653,0.7148,2.0767
7761.0,3.8017,-6.2123,-5.5727,-0.6653,0.7148,2.0767
7766.0,3.8017,-6.2123,-5.5727,-0.6653,0.7148,2.0767
7771.0,4.3189,-6.5841,-5.5538,-0.6653,0.7148,2.0767
7776.0,4.3189,-6.5841,-5.5538,-0.7869,0.7081,1.8305
7781.0,4.3189,-6.5841,-5.5538,-0.7869,0.7081,1.8305
7786.0,4.3189,-6.5841,-5.5538,-0.7869,0.7081,1.8305
7791.0,4.3189,-6.5841,-5.5538,-0.7869,0.7081,1.8305
7796.0,4.3189,-6.5841,-5.5538,-0.7869,0.7081,1.8305
7801.0,3.9645,-7.037,-4.3406,-0.7869,0.7081,1.8305
7806.0,3.9645,-7.037,-4.3406,-0.9048,0.8846,1.5794
7811.0,3.9645,-7.037,-4.3406,-0.9048,0.8846,1.5794
7817.0,3.9645,-7.037,-4.3406,-0.9048,0.8846,1.5794
7821.0,3.9645,-7.037,-4.3406,-0.9048,0.8846,1.5794
7827.0,3.9071,-7.0846,-3.9472,-0.9048,0.8846,1.5794
7831.0,3.9071,-7.0846,-3.9472,-0.9048,0.8846,1.5794
7836.0,3.9071,-7.0846,-3.9472,-0.9048,0.8846,1.5794
7841.0,3.9071,-7.0846,-3.9472,-0.9164,1.107,1.3467
7846.0,3.9071,-7.0846,-3.9472,-0.9164,1.107,1.3467
7851.0,3.9071,-7.0846,-3.9472,-0.9164,1.107,1.3467
7856.0,4.2232,-6.6509,-3.2032,-0.9164,1.107,1.3467
7861.0,4.2232,-6.6509,-3.2032,-0.9164,1.107,1.3467
7866.0,4.2232,-6.6509,-3.2032,-0.9164,1.107,1.3467
7871.0,4.2232,-6.6509,-3.2032,-0.9463,1.3244,1.1665
7876.0,4.2232,-6.6509,-3.2032,-0.9463,1.3244,1.1665
7881.0,4.2232,-6.6509,-3.2032,-0.9463,1.3244,1.1665
7886.0,4.7643,-6.1885,-4.1084,-0.9463,1.3244,1.1665
7891.0,4.7643,-6.1885,-4.1084,-0.9463,1.3244,1.1665
7896.0,4.7643,-6.1885,-4.1084,-0.9463,1.3244,1.1665
7901.0,4.7643,-6.1885,-4.1084,-0.9463,1.3244,1.1665
7907.0,4.7643,-6.1885,-4.1084,-1.0227,1.3385,0.9313
7911.0,5.4205,-5.3924,-3.3169,-1.0227,1.3385,0.9313
7915.0,5.4205,-5.3924,-3.3169,-1.0227,1.3385,0.9313
7921.0,5.4205,-5.3924,-3.3169,-1.0227,1.3385,0.9313
7926.0,5.4205,-5.3924,-3.3169,-1.0227,1.3385,0.9313
7931.0,5.4205,-5.3924,-3.3169,-1.0227,1.3385,0.9313
7936.0,5.6024,-4.4819,-2.9141,-1.1907,1.3562,0.9533
7941.0,5.6024,-4.4819,-2.9141,-1.1907,1.3562,0.9533
7946.0,5.6024,-4.4819,-2.9141,-1.1907,1.3562,0.9533
7951.0,5.6024,-4.4819,-2.9141,-1.1907,1.3562,0.9533
7956.0,5.6024,-4.4819,-2.9141,-1.1907,1.3562,0.9533
7961.0,5.6024,-4.4819,-2.9141,-1.1907,1.3562,0.9533
7966.0,6.1101,-4.1912,-2.9615,-1.391,1.1613,1.0235
7971.0,6.1101,-4.1912,-2.9615,-1.391,1.1613,1.0235
7976.0,6.1101,-4.1912,-2.9615,-1.391,1.1613,1.0235
7981.0,6.1101,-4.1912,-2.9615,-1.391,1.1613,1.0235
7986.0,6.1101,-4.1912,-2.9615,-1.391,1.1613,1.0235
7991.0,6.316,-3.9481,-3.3359,-1.391,1.1613,1.0235
7996.0,6.316,-3.9481,-3.3359,-1.3721,1.1552,1.1402
8001.0,6.316,-3.9481,-3.3359,-1.3721,1.1552,1.1402
8006.0,6.316,-3.9481,-3.3359,-1.3721,1.1552,1.1402
8011.0,6.316,-3.9481,-3.3359,-1.3721,1.1552,1.1402
8016.0,5.3055,-3.9481,-1.8052,-1.3721,1.1552,1.1402
8021.0,5.3055,-3.9481,-1.8052,-1.3721,1.1552,1.1402
8026.0,5.3055,-3.9481,-1.8052,-1.0563,1.1229,1.288
8031.0,5.3055,-3.9481,-1.8052,-1.0563,1.1229,1.288
8036.0,5.3055,-3.9481,-1.8052,-1.0563,1.1229,1.288
8042.0,5.3055,-3.9481,-1.8052,-1.0563,1.1229,1.288
8046.0,4.7117,-4.3914,-2.3265,-1.0563,1.1229,1.288
8051.0,4.7117,-4.3914,-2.3265,-1.0563,1.1229,1.288
8056.0,4.7117,-4.3914,-2.3265,-0.6342,0.6623,1.2605
8061.0,4.7117,-4.3914,-2.3265,-0.6342,0.6623,1.2605
8066.0,4.7117,-4.3914,-2.3265,-0.6342,0.6623,1.2605
8071.0,5.0517,-5.9263,-3.17,-0.6342,0.6623,1.2605
8076.0,5.0517,-5.9263,-3.17,-0.6342,0.6623,1.2605
8081.0,5.0517,-5.9263,-3.17,-0.6342,0.6623,1.2605
8086.0,5.0517,-5.9263,-3.17,-0.6342,0.6623,1.2605
8091.0,5.0517,-5.9263,-3.17,-0.1949,0.1418,1.0687
8096.0,6.4358,-8.8245,-2.5255,-0.1949,0.1418,1.0687
8101.0,6.4358,-8.8245,-2.5255,-0.1949,0.1418,1.0687
8106.0,6.4358,-8.8245,-2.5255,-0.1949,0.1418,1.0687
8111.0,6.4358,-8.8245,-2.5255,-0.1949,0.1418,1.0687
8116.0,6.4358,-8.8245,-2.5255,-0.1949,0.1418,1.0687
8121.0,6.4358,-8.8245,-2.5255,0.2925,0.0373,0.8555
8126.0,7.8678,-11.2604,-4.5112,0.2925,0.0373,0.8555
8131.0,7.8678,-11.2604,-4.5112,0.2925,0.0373,0.8555
8136.0,7.8678,-11.2604,-4.5112,0.2925,0.0373,0.8555
8141.0,7.8678,-11.2604,-4.5112,0.2925,0.0373,0.8555
8146.0,7.8678,-11.2604,-4.5112,0.2925,0.0373,0.8555
8151.0,7.5277,-12.0707,-7.1461,0.598,-1.028,-0.1866
8156.0,7.5277,-12.0707,-7.1461,0.598,-1.028,-0.1866
8161.0,7.5277,-12.0707,-7.1461,0.598,-1.028,-0.1866
8166.0,7.5277,-12.0707,-7.1461,0.598,-1.028,-0.1866
8171.0,7.5277,-12.0707,-7.1461,0.598,-1.028,-0.1866
8176.0,7.5277,-12.0707,-7.1461,0.598,-1.028,-0.1866
8181.0,7.4942,-10.3642,-6.2362,0.7562,-1.6022,-1.0137
8186.0,7.4942,-10.3642,-6.2362,0.7562,-1.6022,-1.0137
8191.0,7.4942,-10.3642,-6.2362,0.7562,-1.6022,-1.0137
8196.0,7.4942,-10.3642,-6.2362,0.7562,-1.6022,-1.0137
8201.0,7.4942,-10.3642,-6.2362,0.7562,-1.6022,-1.0137
8206.0,7.4655,-5.6308,-3.0326,0.7562,-1.6022,-1.0137
8211.0,7.4655,-5.6308,-3.0326,0.7281,-0.4452,-1.3418
8216.0,7.4655,-5.6308,-3.0326,0.7281,-0.4452,-1.3418
8221.0,7.4655,-5.6308,-3.0326,0.7281,-0.4452,-1.3418
8226.0,7.4655,-5.6308,-3.0326,0.7281,-0.4452,-1.3418
8232.0,7.4655,-5.6308,-3.0326,0.7281,-0.4452,-1.3418
8236.0,6.4214,-3.214,-1.5303,0.7281,-0.4452,-1.3418
8241.0,6.4214,-3.214,-1.5303,0.2449,-0.6242,-1.6258
8246.0,6.4214,-3.214,-1.5303,0.2449,-0.6242,-1.6258
8251.0,6.4214,-3.214,-1.5303,0.2449,-0.6242,-1.6258
8256.0,6.4214,-3.214,-1.5303,0.2449,-0.6242,-1.6258
8261.0,5.0565,-2.8279,-2.1985,0.2449,-0.6242,-1.6258
8266.0,5.0565,-2.8279,-2.1985,0.2449,-0.6242,-1.6258
8271.0,5.0565,-2.8279,-2.1985,0.2449,-0.6242,-1.6258
8276.0,5.0565,-2.8279,-2.1985,0.8093,-1.097,-1.1585
8281.0,5.0565,-2.8279,-2.1985,0.8093,-1.097,-1.1585
8286.0,5.0565,-2.8279,-2.1985,0.8093,-1.097,-1.1585
8291.0,2.9923,-5.3829,-3.2553,0.8093,-1.097,-1.1585
8296.0,2.9923,-5.3829,-3.2553,0.8093,-1.097,-1.1585
8301.0,2.9923,-5.3829,-3.2553,0.8093,-1.097,-1.1585
8306.0,2.9923,-5.3829,-3.2553,0.8093,-1.097,-1.1585
8311.0,2.9923,-5.3829,-3.2553,0.8093,-1.097,-1.1585
8316.0,2.9923,-5.3829,-3.2553,0.8093,-1.097,-1.1585
8321.0,2.9923,-5.3829,-3.2553,0.8093,-1.097,-1.1585
8326.0,2.9923,-5.3829,-3.2553,0.8093,-1.097,-1.1585
8331.0,2.9923,-5.3829,-3.2553,0.8093,-1.097,-1.1585
8336.0,2.9396,-7.4565,-2.8525,1.3945,-1.2162,-0.5116
8341.0,2.9396,-7.4565,-2.8525,1.3945,-1.2162,-0.5116
8346.0,2.9396,-7.4565,-2.8525,1.3945,-1.2162,-0.5116
8351.0,2.9396,-7.4565,-2.8525,1.3945,-1.2162,-0.5116
8356.0,2.9396,-7.4565,-2.8525,1.3945,-1.2162,-0.5116
8361.0,2.9396,-7.4565,-2.8525,1.3945,-1.2162,-0.5116
8366.0,2.8726,-5.6737,-0.0659,1.3945,-1.2162,-0.5116
8372.0,2.8726,-5.6737,-0.0659,1.3102,-0.7721,-1.58
8376.0,2.8726,-5.6737,-0.0659,1.3102,-0.7721,-1.58
8381.0,2.8726,-5.6737,-0.0659,1.3102,-0.7721,-1.58
8386.0,2.8726,-5.6737,-0.0659,1.3102,-0.7721,-1.58
8391.0,2.4607,-3.2998,-4.9803,1.3102,-0.7721,-1.58
8396.0,2.4607,-3.2998,-4.9803,1.3102,-0.7721,-1.58
8401.0,2.4607,-3.2998,-4.9803,1.5265,-0.5802,-2.0082
8406.0,2.4607,-3.2998,-4.9803,1.5265,-0.5802,-2.0082
8411.0,2.4607,-3.2998,-4.9803,1.5265,-0.5802,-2.0082
8416.0,5.4444,-5.34,-4.1273,1.5265,-0.5802,-2.0082
8420.0,5.4444,-5.34,-4.1273,1.5265,-0.5802,-2.0082
8426.0,5.4444,-5.34,-4.1273,1.5265,-0.5802,-2.0082
8431.0,5.4444,-5.34,-4.1273,0.8741,-0.8392,-1.3754
8436.0,5.4444,-5.34,-4.1273,0.8741,-0.8392,-1.3754
8441.0,5.4444,-5.34,-4.1273,0.8741,-0.8392,-1.3754
8446.0,6.9578,-7.0513,-7.3973,0.8741,-0.8392,-1.3754
8451.0,6.9578,-7.0513,-7.3973,0.8741,-0.8392,-1.3754
8457.0,6.9578,-7.0513,-7.3973,0.8741,-0.8392,-1.3754
8462.0,6.9578,-7.0513,-7.3973,1.0518,-1.2113,-0.8659
8466.0,6.9578,-7.0513,-7.3973,1.0518,-1.2113,-0.8659
8471.0,6.0335,-6.8844,-4.459,1.0518,-1.2113,-0.8659
8477.0,6.0335,-6.8844,-4.459,1.0518,-1.2113,-0.8659
8482.0,6.0335,-6.8844,-4.459,1.0518,-1.2113,-0.8659
8486.0,6.0335,-6.8844,-4.459,1.0518,-1.2113,-0.8659
8491.0,6.0335,-6.8844,-4.459,0.6633,-1.0097,-1.3729
8496.0,6.0335,-6.8844,-4.459,0.6633,-1.0097,-1.3729
8501.0,3.931,-5.7213,-7.4683,0.6633,-1.0097,-1.3729
8506.0,3.931,-5.7213,-7.4683,0.6633,-1.0097,-1.3729
8511.0,3.931,-5.7213,-7.4683,0.6633,-1.0097,-1.3729
8516.0,3.931,-5.7213,-7.4683,0.6633,-1.0097,-1.3729
8522.0,3.931,-5.7213,-7.4683,0.6633,-1.0097,-1.3729
8525.0,2.2069,-6.8177,-6.1793,0.5827,-1.0146,-1.2269
8531.0,2.2069,-6.8177,-6.1793,0.5827,-1.0146,-1.2269
8536.0,2.2069,-6.8177,-6.1793,0.5827,-1.0146,-1.2269
8541.0,2.2069,-6.8177,-6.1793,0.5827,-1.0146,-1.2269
8546.0,2.2069,-6.8177,-6.1793,0.5827,-1.0146,-1.2269
8552.0,2.681,-6.1789,-7.1319,0.5827,-1.0146,-1.2269
8556.0,2.681,-6.1789,-7.1319,0.5625,-0.7794,-1.288
8561.0,2.681,-6.1789,-7.1319,0.5625,-0.7794,-1.288
8566.0,2.681,-6.1789,-7.1319,0.5625,-0.7794,-1.288
8571.0,2.681,-6.1789,-7.1319,0.5625,-0.7794,-1.288
8576.0,2.681,-6.1789,-7.1319,0.5625,-0.7794,-1.288
8580.0,3.3132,-5.6593,-8.1887,0.5625,-0.7794,-1.288
8586.0,3.3132,-5.6593,-8.1887,0.229,-0.9229,-1.2049
8591.0,3.3132,-5.6593,-8.1887,0.229,-0.9229,-1.2049
8596.0,3.3132,-5.6593,-8.1887,0.229,-0.9229,-1.2049
8601.0,3.3132,-5.6593,-8.1887,0.229,-0.9229,-1.2049
8606.0,1.6992,-6.7033,-7.1082,0.229,-0.9229,-1.2049
8610.0,1.6992,-6.7033,-7.1082,0.229,-0.9229,-1.2049
8617.0,1.6992,-6.7033,-7.1082,0.3909,-0.7024,-1.1371
8621.0,1.6992,-6.7033,-7.1082,0.3909,-0.7024,-1.1371
8627.0,1.6992,-6.7033,-7.1082,0.3909,-0.7024,-1.1371
8631.0,1.0287,-6.3362,-7.9328,0.3909,-0.7024,-1.1371
8636.0,1.0287,-6.3362,-7.9328,0.3909,-0.7024,-1.1371
8641.0,1.0287,-6.3362,-7.9328,0.3909,-0.7024,-1.1371
8647.0,1.0287,-6.3362,-7.9328,0.4239,-0.5118,-1.1573
8651.0,1.0287,-6.3362,-7.9328,0.4239,-0.5118,-1.1573
8656.0,1.0287,-6.3362,-7.9328,0.4239,-0.5118,-1.1573
8662.0,2.4751,-4.9348,-7.8854,0.4239,-0.5118,-1.1573
8666.0,2.4751,-4.9348,-7.8854,0.4239,-0.5118,-1.1573
8671.0,2.4751,-4.9348,-7.8854,0.4239,-0.5118,-1.1573
8676.0,2.4751,-4.9348,-7.8854,0.4239,-0.5118,-1.1573
8681.0,2.4751,-4.9348,-7.8854,0.2815,-0.2253,-1.1579
8686.0,1.6657,-4.0053,-9.1412,0.2815,-0.2253,-1.1579
8690.0,1.6657,-4.0053,-9.1412,0.2815,-0.2253,-1.1579
8696.0,1.6657,-4.0053,-9.1412,0.2815,-0.2253,-1.1579
8701.0,1.6657,-4.0053,-9.1412,0.2815,-0.2253,-1.1579
8706.0,1.6657,-4.0053,-9.1412,0.2815,-0.2253,-1.1579
8711.0,1.0766,-4.2579,-9.2455,0.2717,-0.5802,-0.941
8716.0,1.0766,-4.2579,-9.2455,0.2717,-0.5802,-0.941
8721.0,1.0766,-4.2579,-9.2455,0.2717,-0.5802,-0.941
8726.0,1.0766,-4.2579,-9.2455,0.2717,-0.5802,-0.941
8731.0,1.0766,-4.2579,-9.2455,0.2717,-0.5802,-0.941
8735.0,1.0766,-4.2579,-9.2455,0.2717,-0.5802,-0.941
8741.0,1.2921,-3.9147,-9.8521,0.1887,-0.5283,-1.0296
8746.0,1.2921,-3.9147,-9.8521,0.1887,-0.5283,-1.0296
8751.0,1.2921,-3.9147,-9.8521,0.1887,-0.5283,-1.0296
8757.0,1.2921,-3.9147,-9.8521,0.1887,-0.5283,-1.0296
8762.0,1.2921,-3.9147,-9.8521,0.1887,-0.5283,-1.0296
8766.0,1.7998,-3.6716,-9.781,0.1887,-0.5283,-1.0296
8771.0,1.7998,-3.6716,-9.781,0.0695,-0.6071,-0.9563
8776.0,1.7998,-3.6716,-9.781,0.0695,-0.6071,-0.9563
8781.0,1.7998,-3.6716,-9.781,0.0695,-0.6071,-0.9563
8786.0,1.7998,-3.6716,-9.781,0.0695,-0.6071,-0.9563
8791.0,1.0096,-4.0911,-9.0559,0.0695,-0.6071,-0.9563
8796.0,1.0096,-4.0911,-9.0559,0.0695,-0.6071,-0.9563
8801.0,1.0096,-4.0911,-9.0559,-0.1082,-0.7006,-0.795
8806.0,1.0096,-4.0911,-9.0559,-0.1082,-0.7006,-0.795
8811.0,1.0096,-4.0911,-9.0559,-0.1082,-0.7006,-0.795
8816.0,1.0096,-4.0911,-9.0559,-0.1082,-0.7006,-0.795
8821.0,-0.1686,-4.2484,-9.8189,-0.1082,-0.7006,-0.795
8827.0,-0.1686,-4.2484,-9.8189,-0.1082,-0.7006,-0.795
8831.0,-0.1686,-4.2484,-9.8189,-0.1082,-0.7006,-0.795
8836.0,-0.1686,-4.2484,-9.8189,-0.1473,-0.5143,-0.7162
8841.0,-0.1686,-4.2484,-9.8189,-0.1473,-0.5143,-0.7162
8846.0,-0.1686,-4.2484,-9.8189,-0.1473,-0.5143,-0.7162
8851.0,-0.1302,-4.1578,-10.7525,-0.1473,-0.5143,-0.7162
8856.0,-0.1302,-4.1578,-10.7525,-0.1473,-0.5143,-0.7162
8861.0,-0.1302,-4.1578,-10.7525,-0.1247,-0.3585,-0.5605
8866.0,-0.1302,-4.1578,-10.7525,-0.1247,-0.3585,-0.5605
8871.0,-0.1302,-4.1578,-10.7525,-0.1247,-0.3585,-0.5605
8876.0,-0.1302,-4.1578,-10.7525,-0.1247,-0.3585,-0.5605
8881.0,-0.2021,-4.0911,-10.8615,-0.1247,-0.3585,-0.5605
8886.0,-0.2021,-4.0911,-10.8615,-0.1247,-0.3585,-0.5605
8890.0,-0.2021,-4.0911,-10.8615,-0.1247,-0.3585,-0.5605
8896.0,-0.2021,-4.0911,-10.8615,-0.0771,-0.2137,-0.2385
8901.0,-0.2021,-4.0911,-10.8615,-0.0771,-0.2137,-0.2385
8906.0,-0.317,-4.4105,-10.8188,-0.0771,-0.2137,-0.2385
8911.0,-0.317,-4.4105,-10.8188,-0.0771,-0.2137,-0.2385
8916.0,-0.317,-4.4105,-10.8188,-0.0771,-0.2137,-0.2385
8921.0,-0.317,-4.4105,-10.8188,-0.0771,-0.2137,-0.2385
8926.0,-0.317,-4.4105,-10.8188,-0.0508,0.022,0.0125
8931.0,-0.317,-4.4105,-10.8188,-0.0508,0.022,0.0125
8936.0,-0.8726,-5.1255,-10.6625,-0.0508,0.022,0.0125
8941.0,-0.8726,-5.1255,-10.6625,-0.0508,0.022,0.0125
8946.0,-0.8726,-5.1255,-10.6625,-0.0508,0.022,0.0125
8951.0,-0.8726,-5.1255,-10.6625,-0.0508,0.022,0.0125
8956.0,-0.8726,-5.1255,-10.6625,0.1312,0.234,0.3406
8961.0,0.296,-4.4343,-11.1601,0.1312,0.234,0.3406
8966.0,0.296,-4.4343,-11.1601,0.1312,0.234,0.3406
8971.0,0.296,-4.4343,-11.1601,0.1312,0.234,0.3406
8975.0,0.296,-4.4343,-11.1601,0.1312,0.234,0.3406
8981.0,0.296,-4.4343,-11.1601,0.1312,0.234,0.3406
8986.0,0.3678,-4.8824,-10.6388,0.1526,0.4527,0.6161
8991.0,0.3678,-4.8824,-10.6388,0.1526,0.4527,0.6161
8996.0,0.3678,-4.8824,-10.6388,0.1526,0.4527,0.6161
9001.0,0.3678,-4.8824,-10.6388,0.1526,0.4527,0.6161
9006.0,0.3678,-4.8824,-10.6388,0.1526,0.4527,0.6161
9011.0,0.3678,-4.8824,-10.6388,0.1526,0.4527,0.6161
9016.0,0.3678,-4.8824,-10.6388,0.1526,0.4527,0.6161
9022.0,0.4061,-4.5106,-11.3544,0.1001,0.6561,0.9099
9026.0,0.4061,-4.5106,-11.3544,0.1001,0.6561,0.9099
9032.0,0.4061,-4.5106,-11.3544,0.1001,0.6561,0.9099
9036.0,0.4061,-4.5106,-11.3544,0.1001,0.6561,0.9099
9041.0,0.4061,-4.5106,-11.3544,0.1001,0.6561,0.9099
9046.0,0.7079,-5.1159,-10.2881,0.1001,0.6561,0.9099
9051.0,0.7079,-5.1159,-10.2881,0.1031,0.8443,1.0138
9056.0,0.7079,-5.1159,-10.2881,0.1031,0.8443,1.0138
9061.0,0.7079,-5.1159,-10.2881,0.1031,0.8443,1.0138
9066.0,0.7079,-5.1159,-10.2881,0.1031,0.8443,1.0138
9071.0,1.7759,-4.5296,-9.0275,0.1031,0.8443,1.0138
9076.0,1.7759,-4.5296,-9.0275,0.1031,0.8443,1.0138
9081.0,1.7759,-4.5296,-9.0275,0.0561,0.8803,1.2269
9086.0,1.7759,-4.5296,-9.0275,0.0561,0.8803,1.2269
9091.0,1.7759,-4.5296,-9.0275,0.0561,0.8803,1.2269
9096.0,1.7759,-4.5296,-9.0275,0.0561,0.8803,1.2269
9101.0,1.5508,-4.8633,-8.3214,0.0561,0.8803,1.2269
9106.0,1.5508,-4.8633,-8.3214,0.0561,0.8803,1.2269
9111.0,1.5508,-4.8633,-8.3214,0.0561,0.8803,1.2269
9116.0,1.5508,-4.8633,-8.3214,-0.0276,0.862,1.5312
9121.0,1.5508,-4.8633,-8.3214,-0.0276,0.862,1.5312
9126.0,1.2203,-4.5058,-8.6484,-0.0276,0.862,1.5312
9131.0,1.2203,-4.5058,-8.6484,-0.0276,0.862,1.5312
9136.0,1.2203,-4.5058,-8.6484,-0.0276,0.862,1.5312
9141.0,1.2203,-4.5058,-8.6484,-0.0276,0.862,1.5312
9146.0,1.2203,-4.5058,-8.6484,-0.1986,0.8137,1.5782
9151.0,1.5699,-4.5725,-8.1271,-0.1986,0.8137,1.5782
9156.0,1.5699,-4.5725,-8.1271,-0.1986,0.8137,1.5782
9161.0,1.5699,-4.5725,-8.1271,-0.1986,0.8137,1.5782
9166.0,1.5699,-4.5725,-8.1271,-0.1986,0.8137,1.5782
9171.0,1.5699,-4.5725,-8.1271,-0.1986,0.8137,1.5782
9176.0,2.0105,-4.5964,-7.7337,-0.311,0.7985,1.5024
9181.0,2.0105,-4.5964,-7.7337,-0.311,0.7985,1.5024
9186.0,2.0105,-4.5964,-7.7337,-0.311,0.7985,1.5024
9192.0,2.0105,-4.5964,-7.7337,-0.311,0.7985,1.5024
9198.0,2.0105,-4.5964,-7.7337,-0.311,0.7985,1.5024
9200.0,2.0105,-4.5964,-7.7337,-0.311,0.7985,1.5024
9206.0,3.0211,-4.4391,-7.5157,-0.311,0.7985,1.5024
9211.0,3.0211,-4.4391,-7.5157,-0.4882,0.7893,1.5965
9216.0,3.0211,-4.4391,-7.5157,-0.4882,0.7893,1.5965
9221.0,3.0211,-4.4391,-7.5157,-0.4882,0.7893,1.5965
9226.0,3.0211,-4.4391,-7.5157,-0.4882,0.7893,1.5965
9231.0,3.7778,-4.625,-7.0134,-0.4882,0.7893,1.5965
9236.0,3.7778,-4.625,-7.0134,-0.4882,0.7893,1.5965
9241.0,3.7778,-4.625,-7.0134,-0.6476,0.5669,1.8232
9247.0,3.7778,-4.625,-7.0134,-0.6476,0.5669,1.8232
9251.0,3.7778,-4.625,-7.0134,-0.6476,0.5669,1.8232
9256.0,3.7778,-4.625,-7.0134,-0.6476,0.5669,1.8232
9261.0,3.7682,-5.7499,-6.6864,-0.6476,0.5669,1.8232
9266.0,3.7682,-5.7499,-6.6864,-0.6476,0.5669,1.8232
9271.0,3.7682,-5.7499,-6.6864,-0.8584,0.4454,1.9154
9276.0,3.7682,-5.7499,-6.6864,-0.8584,0.4454,1.9154
9281.0,3.7682,-5.7499,-6.6864,-0.8584,0.4454,1.9154
9286.0,3.7538,-6.4697,-6.2788,-0.8584,0.4454,1.9154
9292.0,3.7538,-6.4697,-6.2788,-0.8584,0.4454,1.9154
9296.0,3.7538,-6.4697,-6.2788,-0.8584,0.4454,1.9154
9301.0,3.7538,-6.4697,-6.2788,-0.8584,0.4454,1.9154
9306.0,3.7538,-6.4697,-6.2788,-1.008,0.5065,1.6784
9311.0,4.1226,-6.4506,-5.3974,-1.008,0.5065,1.6784
9316.0,4.1226,-6.4506,-5.3974,-1.008,0.5065,1.6784
9321.0,4.1226,-6.4506,-5.3974,-1.008,0.5065,1.6784
9326.0,4.1226,-6.4506,-5.3974,-1.008,0.5065,1.6784
9331.0,4.1226,-6.4506,-5.3974,-1.008,0.5065,1.6784
9336.0,4.1226,-6.4506,-5.3974,-1.0948,0.5175,1.489
9341.0,4.2279,-6.8082,-4.6297,-1.0948,0.5175,1.489
9346.0,4.2279,-6.8082,-4.6297,-1.0948,0.5175,1.489
9351.0,4.2279,-6.8082,-4.6297,-1.0948,0.5175,1.489
9356.0,4.2279,-6.8082,-4.6297,-1.0948,0.5175,1.489
9361.0,4.2279,-6.8082,-4.6297,-1.0948,0.5175,1.489
9367.0,4.1465,-6.894,-3.9899,-1.1522,0.5474,1.4395
9371.0,4.1465,-6.894,-3.9899,-1.1522,0.5474,1.4395
9376.0,4.1465,-6.894,-3.9899,-1.1522,0.5474,1.4395
9381.0,4.1465,-6.894,-3.9899,-1.1522,0.5474,1.4395
9386.0,4.1465,-6.894,-3.9899,-1.1522,0.5474,1.4395
9391.0,3.9119,-7.056,-3.4733,-1.1522,0.5474,1.4395
9396.0,3.9119,-7.056,-3.4733,-1.1522,0.5474,1.4395
9401.0,3.9119,-7.056,-3.4733,-1.2139,0.7313,1.3497
9406.0,3.9119,-7.056,-3.4733,-1.2139,0.7313,1.3497
9411.0,3.9119,-7.056,-3.4733,-1.2139,0.7313,1.3497
9416.0,3.9119,-7.056,-3.4733,-1.2139,0.7313,1.3497
9421.0,4.1226,-6.8368,-2.9473,-1.2139,0.7313,1.3497
9426.0,4.1226,-6.8368,-2.9473,-1.2139,0.7313,1.3497
9431.0,4.1226,-6.8368,-2.9473,-1.3177,0.9329,1.2025
9436.0,4.1226,-6.8368,-2.9473,-1.3177,0.9329,1.2025
9441.0,4.1226,-6.8368,-2.9473,-1.3177,0.9329,1.2025
9446.0,3.9358,-6.7271,-2.8857,-1.3177,0.9329,1.2025
9451.0,3.9358,-6.7271,-2.8857,-1.3177,0.9329,1.2025
9456.0,3.9358,-6.7271,-2.8857,-1.3177,0.9329,1.2025
9461.0,3.9358,-6.7271,-2.8857,-1.388,1.0703,0.9936
9466.0,3.9358,-6.7271,-2.8857,-1.388,1.0703,0.9936
9471.0,3.6245,-6.77,-2.9236,-1.388,1.0703,0.9936
9476.0,3.6245,-6.77,-2.9236,-1.388,1.0703,0.9936
9481.0,3.6245,-6.77,-2.9236,-1.388,1.0703,0.9936
9486.0,3.6245,-6.77,-2.9236,-1.388,1.0703,0.9936
9491.0,3.6245,-6.77,-2.9236,-1.388,1.0703,0.9936
9495.0,3.6245,-6.77,-2.9236,-1.245,0.9726,0.8598
9501.0,3.955,-6.4411,-3.6155,-1.245,0.9726,0.8598
9506.0,3.955,-6.4411,-3.6155,-1.245,0.9726,0.8598
9511.0,3.955,-6.4411,-3.6155,-1.245,0.9726,0.8598
9516.0,3.955,-6.4411,-3.6155,-1.245,0.9726,0.8598
9521.0,3.955,-6.4411,-3.6155,-1.245,0.9726,0.8598
9526.0,4.1752,-5.4162,-2.1464,-1.0502,0.7863,0.6833
9532.0,4.1752,-5.4162,-2.1464,-1.0502,0.7863,0.6833
9536.0,4.1752,-5.4162,-2.1464,-1.0502,0.7863,0.6833
9541.0,4.1752,-5.4162,-2.1464,-1.0502,0.7863,0.6833
9546.0,4.1752,-5.4162,-2.1464,-1.0502,0.7863,0.6833
9551.0,4.5536,-5.4115,-3.4165,-1.0502,0.7863,0.6833
9556.0,4.5536,-5.4115,-3.4165,-0.8706,0.8583,0.5959
9561.0,4.5536,-5.4115,-3.4165,-0.8706,0.8583,0.5959
9566.0,4.5536,-5.4115,-3.4165,-0.8706,0.8583,0.5959
9571.0,4.5536,-5.4115,-3.4165,-0.8706,0.8583,0.5959
9576.0,4.5536,-5.4115,-3.4165,-0.8706,0.8583,0.5959
9580.0,4.9607,-5.7213,-4.0325,-0.8706,0.8583,0.5959
9586.0,4.9607,-5.7213,-4.0325,-0.6415,0.6366,0.5434
9591.0,4.9607,-5.7213,-4.0325,-0.6415,0.6366,0.5434
9597.0,4.9607,-5.7213,-4.0325,-0.6415,0.6366,0.5434
9601.0,4.9607,-5.7213,-4.0325,-0.6415,0.6366,0.5434
9606.0,5.4588,-6.0598,-2.6772,-0.6415,0.6366,0.5434
9611.0,5.4588,-6.0598,-2.6772,-0.6415,0.6366,0.5434
9616.0,5.4588,-6.0598,-2.6772,-0.6415,0.6366,0.5434
9621.0,5.4588,-6.0598,-2.6772,-0.311,0.3244,0.4646
9626.0,5.4588,-6.0598,-2.6772,-0.311,0.3244,0.4646
9632.0,5.4588,-6.0598,-2.6772,-0.311,0.3244,0.4646
9636.0,6.0862,-8.038,-3.2411,-0.311,0.3244,0.4646
9641.0,6.0862,-8.038,-3.2411,-0.311,0.3244,0.4646
9646.0,6.0862,-8.038,-3.2411,-0.311,0.3244,0.4646
9651.0,6.0862,-8.038,-3.2411,0.1129,-0.2565,0.5238
9656.0,6.0862,-8.038,-3.2411,0.1129,-0.2565,0.5238
9661.0,6.9386,-10.4405,-5.2457,0.1129,-0.2565,0.5238
9666.0,6.9386,-10.4405,-5.2457,0.1129,-0.2565,0.5238
9671.0,6.9386,-10.4405,-5.2457,0.1129,-0.2565,0.5238
9675.0,6.9386,-10.4405,-5.2457,0.1129,-0.2565,0.5238
9681.0,6.9386,-10.4405,-5.2457,0.4831,-1.0964,-0.0156
9686.0,6.9195,-10.1974,-5.2599,0.4831,-1.0964,-0.0156
9691.0,6.9195,-10.1974,-5.2599,0.4831,-1.0964,-0.0156
9696.0,6.9195,-10.1974,-5.2599,0.4831,-1.0964,-0.0156
9701.0,6.9195,-10.1974,-5.2599,0.4831,-1.0964,-0.0156
9706.0,6.9195,-10.1974,-5.2599,0.4831,-1.0964,-0.0156
9712.0,6.9195,-10.1974,-5.2599,0.5674,-0.4477,-0.7742
9716.0,6.1293,-7.4993,-4.9898,0.5674,-0.4477,-0.7742
9721.0,6.1293,-7.4993,-4.9898,0.5674,-0.4477,-0.7742
9726.0,6.1293,-7.4993,-4.9898,0.5674,-0.4477,-0.7742
9731.0,6.1293,-7.4993,-4.9898,0.5674,-0.4477,-0.7742
9736.0,6.1293,-7.4993,-4.9898,0.5674,-0.4477,-0.7742
9741.0,4.9368,-5.3876,-5.132,0.5674,-0.4477,-0.7742
9746.0,4.9368,-5.3876,-5.132,0.6945,-0.086,-1.1701
9751.0,4.9368,-5.3876,-5.132,0.6945,-0.086,-1.1701
9756.0,4.9368,-5.3876,-5.132,0.6945,-0.086,-1.1701
9761.0,4.9368,-5.3876,-5.132,0.6945,-0.086,-1.1701
9766.0,4.9368,-5.3876,-5.132,0.6945,-0.086,-1.1701
9770.0,5.1044,-6.2028,-1.7057,0.6945,-0.086,-1.1701
9776.0,5.1044,-6.2028,-1.7057,1.0073,-0.86,-1.7932
9781.0,5.1044,-6.2028,-1.7057,1.0073,-0.86,-1.7932
9785.0,5.1044,-6.2028,-1.7057,1.0073,-0.86,-1.7932
9791.0,5.1044,-6.2028,-1.7057,1.0073,-0.86,-1.7932
9796.0,5.1187,-4.9729,-1.535,1.0073,-0.86,-1.7932
9802.0,5.1187,-4.9729,-1.535,1.0073,-0.86,-1.7932
9806.0,5.1187,-4.9729,-1.535,0.9633,-0.4086,-1.0528
9811.0,5.1187,-4.9729,-1.535,0.9633,-0.4086,-1.0528
9816.0,5.1187,-4.9729,-1.535,0.9633,-0.4086,-1.0528
9821.0,2.9396,-5.1017,-6.094,0.9633,-0.4086,-1.0528
9829.0,2.9396,-5.1017,-6.094,0.9633,-0.4086,-1.0528
9831.0,2.9396,-5.1017,-6.094,0.9633,-0.4086,-1.0528
9836.0,2.9396,-5.1017,-6.094,0.9633,-0.4086,-1.0528
9841.0,2.9396,-5.1017,-6.094,1.2919,-0.9969,-1.0033
9846.0,3.0929,-7.0703,-3.2222,1.2919,-0.9969,-1.0033
9851.0,3.0929,-7.0703,-3.2222,1.2919,-0.9969,-1.0033
9856.0,3.0929,-7.0703,-3.2222,1.2919,-0.9969,-1.0033
9861.0,3.0929,-7.0703,-3.2222,1.2919,-0.9969,-1.0033
9866.0,3.0929,-7.0703,-3.2222,1.2919,-0.9969,-1.0033
9871.0,3.0929,-7.0703,-3.2222,1.3787,-0.8576,-1.679
9876.0,3.6053,-5.2876,-3.9567,1.3787,-0.8576,-1.679
9881.0,3.6053,-5.2876,-3.9567,1.3787,-0.8576,-1.679
9886.0,3.6053,-5.2876,-3.9567,1.3787,-0.8576,-1.679
9891.0,3.6053,-5.2876,-3.9567,1.3787,-0.8576,-1.679
9896.0,3.6053,-5.2876,-3.9567,1.3787,-0.8576,-1.679
9901.0,4.5153,-4.0291,-4.3311,1.0421,-0.7702,-1.8152
9906.0,4.5153,-4.0291,-4.3311,1.0421,-0.7702,-1.8152
9911.0,4.5153,-4.0291,-4.3311,1.0421,-0.7702,-1.8152
9916.0,4.5153,-4.0291,-4.3311,1.0421,-0.7702,-1.8152
9921.0,4.5153,-4.0291,-4.3311,1.0421,-0.7702,-1.8152
9926.0,4.5153,-4.0291,-4.3311,1.0421,-0.7702,-1.8152
9931.0,4.568,-5.5307,-3.5776,1.1643,-0.7855,-1.4676
9937.0,4.568,-5.5307,-3.5776,1.1643,-0.7855,-1.4676
9941.0,4.568,-5.5307,-3.5776,1.1643,-0.7855,-1.4676
9946.0,4.568,-5.5307,-3.5776,1.1643,-0.7855,-1.4676
9951.0,4.568,-5.5307,-3.5776,1.1643,-0.7855,-1.4676
9956.0,4.4961,-6.9702,-5.8665,1.1643,-0.7855,-1.4676
9961.0,4.4961,-6.9702,-5.8665,1.0445,-0.9779,-0.8873
9966.0,4.4961,-6.9702,-5.8665,1.0445,-0.9779,-0.8873
9971.0,4.4961,-6.9702,-5.8665,1.0445,-0.9779,-0.8873
9976.0,4.4961,-6.9702,-5.8665,1.0445,-0.9779,-0.8873
9982.0,5.6408,-7.2944,-6.5679,1.0445,-0.9779,-0.8873
9987.0,5.6408,-7.2944,-6.5679,1.0445,-0.9779,-0.8873
9991.0,5.6408,-7.2944,-6.5679,0.7189,-1.0732,-1.0363
9996.0,5.6408,-7.2944,-6.5679,0.7189,-1.0732,-1.0363
10001.0,5.6408,-7.2944,-6.5679,0.7189,-1.0732,-1.0363
10006.0,4.4818,-6.8987,-5.9566,0.7189,-1.0732,-1.0363
10011.0,4.4818,-6.8987,-5.9566,0.7189,-1.0732,-1.0363
10016.0,4.4818,-6.8987,-5.9566,0.7189,-1.0732,-1.0363
10021.0,4.4818,-6.8987,-5.9566,0.6108,-0.8344,-1.7223
10026.0,4.4818,-6.8987,-5.9566,0.6108,-0.8344,-1.7223
10031.0,4.4818,-6.8987,-5.9566,0.6108,-0.8344,-1.7223
10036.0,3.0067,-7.1085,-6.9565,0.6108,-0.8344,-1.7223
10041.0,3.0067,-7.1085,-6.9565,0.6108,-0.8344,-1.7223
10046.0,3.0067,-7.1085,-6.9565,0.6108,-0.8344,-1.7223
10050.0,3.0067,-7.1085,-6.9565,0.6108,-0.8344,-1.7223
10056.0,3.0067,-7.1085,-6.9565,0.4355,-0.623,-1.6661
10061.0,1.977,-6.4888,-5.8381,0.4355,-0.623,-1.6661
10066.0,1.977,-6.4888,-5.8381,0.4355,-0.623,-1.6661
10071.0,1.977,-6.4888,-5.8381,0.4355,-0.623,-1.6661
10076.0,1.977,-6.4888,-5.8381,0.4355,-0.623,-1.6661
10081.0,1.977,-6.4888,-5.8381,0.4355,-0.623,-1.6661
10086.0,1.977,-6.4888,-5.8381,0.485,-0.6951,-1.5959
10094.0,2.9732,-5.216,-7.4352,0.485,-0.6951,-1.5959
10096.0,2.9732,-5.216,-7.4352,0.485,-0.6951,-1.5959
10101.0,2.9732,-5.216,-7.4352,0.485,-0.6951,-1.5959
10106.0,2.9732,-5.216,-7.4352,0.485,-0.6951,-1.5959
10111.0,2.9732,-5.216,-7.4352,0.485,-0.6951,-1.5959
10116.0,3.2366,-4.3056,-6.5964,0.4801,-0.5802,-1.2281
10121.0,3.2366,-4.3056,-6.5964,0.4801,-0.5802,-1.2281
10126.0,3.2366,-4.3056,-6.5964,0.4801,-0.5802,-1.2281
10131.0,3.2366,-4.3056,-6.5964,0.4801,-0.5802,-1.2281
10135.0,3.2366,-4.3056,-6.5964,0.4801,-0.5802,-1.2281
10141.0,0.9138,-5.5211,-7.9849,0.4801,-0.5802,-1.2281
10146.0,0.9138,-5.5211,-7.9849,0.5345,-0.9113,-1.2012
10151.0,0.9138,-5.5211,-7.9849,0.5345,-0.9113,-1.2012
10157.0,0.9138,-5.5211,-7.9849,0.5345,-0.9113,-1.2012
10161.0,0.9138,-5.5211,-7.9849,0.5345,-0.9113,-1.2012
10166.0,0.9138,-5.5211,-7.9849,0.5345,-0.9113,-1.2012
10173.0,1.2826,-6.4173,-8.1034,0.5345,-0.9113,-1.2012
10176.0,1.2826,-6.4173,-8.1034,0.3408,-0.579,-1.5446
10181.0,1.2826,-6.4173,-8.1034,0.3408,-0.579,-1.5446
10186.0,1.2826,-6.4173,-8.1034,0.3408,-0.579,-1.5446
10191.0,1.2826,-6.4173,-8.1034,0.3408,-0.579,-1.5446
10197.0,2.6235,-4.2436,-9.0417,0.3408,-0.579,-1.5446
10201.0,2.6235,-4.2436,-9.0417,0.3408,-0.579,-1.5446
10207.0,2.6235,-4.2436,-9.0417,0.3585,-0.557,-1.3161
10211.0,2.6235,-4.2436,-9.0417,0.3585,-0.557,-1.3161
10216.0,2.6235,-4.2436,-9.0417,0.3585,-0.557,-1.3161
10222.0,1.7471,-2.5562,-10.0654,0.3585,-0.557,-1.3161
10226.0,1.7471,-2.5562,-10.0654,0.3585,-0.557,-1.3161
10231.0,1.7471,-2.5562,-10.0654,0.3585,-0.557,-1.3161
10236.0,1.7471,-2.5562,-10.0654,0.3585,-0.557,-1.3161
10241.0,1.7471,-2.5562,-10.0654,0.2803,-0.9284,-0.6973
10246.0,1.7471,-2.5562,-10.0654,0.2803,-0.9284,-0.6973
10251.0,0.0948,-2.9613,-10.6009,0.2803,-0.9284,-0.6973
10257.0,0.0948,-2.9613,-10.6009,0.2803,-0.9284,-0.6973
10262.0,0.0948,-2.9613,-10.6009,0.2803,-0.9284,-0.6973
10266.0,0.0948,-2.9613,-10.6009,0.0366,-1.0451,-0.7211
10271.0,0.0948,-2.9613,-10.6009,0.0366,-1.0451,-0.7211
10276.0,-0.1638,-3.9814,-10.8046,0.0366,-1.0451,-0.7211
10281.0,-0.1638,-3.9814,-10.8046,0.0366,-1.0451,-0.7211
10286.0,-0.1638,-3.9814,-10.8046,0.0366,-1.0451,-0.7211
10291.0,-0.1638,-3.9814,-10.8046,0.0366,-1.0451,-0.7211
10296.0,-0.1638,-3.9814,-10.8046,0.0366,-1.0451,-0.7211
10301.0,0.1044,-4.3819,-11.2169,-0.1906,-0.7592,-0.8347
10306.0,0.1044,-4.3819,-11.2169,-0.1906,-0.7592,-0.8347
10311.0,0.1044,-4.3819,-11.2169,-0.1906,-0.7592,-0.8347
10317.0,0.1044,-4.3819,-11.2169,-0.1906,-0.7592,-0.8347
10321.0,0.1044,-4.3819,-11.2169,-0.1906,-0.7592,-0.8347
10326.0,0.1044,-4.3819,-11.2169,-0.1906,-0.7592,-0.8347
10331.0,-0.1302,-4.7632,-11.5582,-0.2395,-0.5069,-0.4908
10336.0,-0.1302,-4.7632,-11.5582,-0.2395,-0.5069,-0.4908
10341.0,-0.1302,-4.7632,-11.5582,-0.2395,-0.5069,-0.4908
10346.0,-0.1302,-4.7632,-11.5582,-0.2395,-0.5069,-0.4908
10351.0,-0.1302,-4.7632,-11.5582,-0.2395,-0.5069,-0.4908
10356.0,-0.523,-4.7394,-11.6719,-0.2395,-0.5069,-0.4908
10361.0,-0.523,-4.7394,-11.6719,-0.1662,-0.2137,-0.0339
10366.0,-0.523,-4.7394,-11.6719,-0.1662,-0.2137,-0.0339
10372.0,-0.523,-4.7394,-11.6719,-0.1662,-0.2137,-0.0339
10376.0,-0.523,-4.7394,-11.6719,-0.1662,-0.2137,-0.0339
10381.0,-0.317,-5.9263,-11.9373,-0.1662,-0.2137,-0.0339
10386.0,-0.317,-5.9263,-11.9373,-0.1662,-0.2137,-0.0339
10391.0,-0.317,-5.9263,-11.9373,0.0519,0.0667,0.3687
10396.0,-0.317,-5.9263,-11.9373,0.0519,0.0667,0.3687
10401.0,-0.317,-5.9263,-11.9373,0.0519,0.0667,0.3687
10406.0,-0.317,-5.9263,-11.9373,0.0519,0.0667,0.3687
10411.0,0.4349,-5.9263,-11.2075,0.0519,0.0667,0.3687
10416.0,0.4349,-5.9263,-11.2075,0.0519,0.0667,0.3687
10421.0,0.4349,-5.9263,-11.2075,0.2351,0.5303,0.9661
10426.0,0.4349,-5.9263,-11.2075,0.2351,0.5303,0.9661
10431.0,0.4349,-5.9263,-11.2075,0.2351,0.5303,0.9661
10436.0,0.8755,-5.2542,-11.743,0.2351,0.5303,0.9661
10441.0,0.8755,-5.2542,-11.743,0.2351,0.5303,0.9661
10446.0,0.8755,-5.2542,-11.743,0.2351,0.5303,0.9661
10451.0,0.8755,-5.2542,-11.743,0.0714,0.8498,0.9808
10456.0,0.8755,-5.2542,-11.743,0.0714,0.8498,0.9808
10463.0,0.7605,-4.3628,-10.8615,0.0714,0.8498,0.9808
10470.0,0.7605,-4.3628,-10.8615,0.0714,0.8498,0.9808
10471.0,0.7605,-4.3628,-10.8615,0.0714,0.8498,0.9808
10476.0,0.7605,-4.3628,-10.8615,0.0714,0.8498,0.9808
10480.0,0.7605,-4.3628,-10.8615,0.0714,0.8498,0.9808
10486.0,0.7605,-4.3628,-10.8615,-0.1937,0.9439,1.0358
10490.0,1.6609,-3.5286,-10.9658,-0.1937,0.9439,1.0358
10496.0,1.6609,-3.5286,-10.9658,-0.1937,0.9439,1.0358
10501.0,1.6609,-3.5286,-10.9658,-0.1937,0.9439,1.0358
10506.0,1.6609,-3.5286,-10.9658,-0.1937,0.9439,1.0358
10510.0,1.6609,-3.5286,-10.9658,-0.1937,0.9439,1.0358
10516.0,2.0919,-3.4046,-10.1317,-0.5083,0.9292,0.9905
10520.0,2.0919,-3.4046,-10.1317,-0.5083,0.9292,0.9905
10526.0,2.0919,-3.4046,-10.1317,-0.5083,0.9292,0.9905
10531.0,2.0919,-3.4046,-10.1317,-0.5083,0.9292,0.9905
10536.0,2.0919,-3.4046,-10.1317,-0.5083,0.9292,0.9905
10541.0,1.4167,-3.8527,-8.5299,-0.5083,0.9292,0.9905
10546.0,1.4167,-3.8527,-8.5299,-0.6922,0.8761,1.2068
10551.0,1.4167,-3.8527,-8.5299,-0.6922,0.8761,1.2068
10555.0,1.4167,-3.8527,-8.5299,-0.6922,0.8761,1.2068
10561.0,1.4167,-3.8527,-8.5299,-0.6922,0.8761,1.2068
10566.0,1.4167,-3.8527,-8.5299,-0.6922,0.8761,1.2068
10572.0,1.4262,-4.787,-8.1602,-0.6922,0.8761,1.2068
10576.0,1.4262,-4.787,-8.1602,-0.7154,0.7899,1.5287
10581.0,1.4262,-4.787,-8.1602,-0.7154,0.7899,1.5287
10586.0,1.4262,-4.787,-8.1602,-0.7154,0.7899,1.5287
10591.0,1.4262,-4.787,-8.1602,-0.7154,0.7899,1.5287
10596.0,1.5699,-5.6355,-8.0086,-0.7154,0.7899,1.5287
10601.0,1.5699,-5.6355,-8.0086,-0.7154,0.7899,1.5287
10606.0,1.5699,-5.6355,-8.0086,-0.6036,0.8333,1.7627
10612.0,1.5699,-5.6355,-8.0086,-0.6036,0.8333,1.7627
10617.0,1.5699,-5.6355,-8.0086,-0.6036,0.8333,1.7627
10621.0,2.0919,-5.626,-6.5063,-0.6036,0.8333,1.7627
10626.0,2.0919,-5.626,-6.5063,-0.6036,0.8333,1.7627
10631.0,2.0919,-5.626,-6.5063,-0.6036,0.8333,1.7627
10636.0,2.0919,-5.626,-6.5063,-0.6036,0.8333,1.7627
10641.0,2.0919,-5.626,-6.5063,-0.658,0.8254,1.974
10646.0,2.0919,-5.626,-6.5063,-0.658,0.8254,1.974
10650.0,3.1025,-5.4925,-6.2694,-0.658,0.8254,1.974
10656.0,3.1025,-5.4925,-6.2694,-0.658,0.8254,1.974
10661.0,3.1025,-5.4925,-6.2694,-0.658,0.8254,1.974
10666.0,3.1025,-5.4925,-6.2694,-0.658,0.8254,1.974
10671.0,3.1025,-5.4925,-6.2694,-0.8088,0.7417,2.1347
10676.0,3.5383,-6.1646,-6.4163,-0.8088,0.7417,2.1347
10681.0,3.5383,-6.1646,-6.4163,-0.8088,0.7417,2.1347
10686.0,3.5383,-6.1646,-6.4163,-0.8088,0.7417,2.1347
10691.0,3.5383,-6.1646,-6.4163,-0.8088,0.7417,2.1347
10696.0,3.5383,-6.1646,-6.4163,-0.8088,0.7417,2.1347
10701.0,3.5383,-6.1646,-6.4163,-0.8088,0.7417,2.1347
10706.0,3.3802,-6.6461,-5.6296,-0.92,0.6659,2.0064
10711.0,3.3802,-6.6461,-5.6296,-0.92,0.6659,2.0064
10716.0,3.3802,-6.6461,-5.6296,-0.92,0.6659,2.0064
10721.0,3.3802,-6.6461,-5.6296,-0.92,0.6659,2.0064
10726.0,3.3802,-6.6461,-5.6296,-0.92,0.6659,2.0064
10731.0,3.6293,-6.5508,-4.6676,-0.92,0.6659,2.0064
10736.0,3.6293,-6.5508,-4.6676,-1.1863,0.7625,1.4957
10741.0,3.6293,-6.5508,-4.6676,-1.1863,0.7625,1.4957
10746.0,3.6293,-6.5508,-4.6676,-1.1863,0.7625,1.4957
10752.0,3.6293,-6.5508,-4.6676,-1.1863,0.7625,1.4957
10756.0,3.6293,-6.5508,-4.6676,-1.1863,0.7625,1.4957
10761.0,3.931,-6.5793,-4.151,-1.1863,0.7625,1.4957
10766.0,3.931,-6.5793,-4.151,-1.3244,0.9188,1.2526
10771.0,3.931,-6.5793,-4.151,-1.3244,0.9188,1.2526
10777.0,3.931,-6.5793,-4.151,-1.3244,0.9188,1.2526
10781.0,3.931,-6.5793,-4.151,-1.3244,0.9188,1.2526
10786.0,3.2988,-7.0656,-3.3074,-1.3244,0.9188,1.2526
10791.0,3.2988,-7.0656,-3.3074,-1.3244,0.9188,1.2526
10797.0,3.2988,-7.0656,-3.3074,-1.2535,0.9818,1.1145
10801.0,3.2988,-7.0656,-3.3074,-1.2535,0.9818,1.1145
10806.0,3.2988,-7.0656,-3.3074,-1.2535,0.9818,1.1145
10811.0,3.0019,-7.1657,-2.971,-1.2535,0.9818,1.1145
10816.0,3.0019,-7.1657,-2.971,-1.2535,0.9818,1.1145
10821.0,3.0019,-7.1657,-2.971,-1.2535,0.9818,1.1145
10826.0,3.0019,-7.1657,-2.971,-1.0849,1.3031,1.015
10831.0,3.0019,-7.1657,-2.971,-1.0849,1.3031,1.015
10836.0,3.0019,-7.1657,-2.971,-1.0849,1.3031,1.015
10842.0,3.0019,-7.1657,-2.971,-1.0849,1.3031,1.015
10845.0,3.0019,-7.1657,-2.971,-1.0849,1.3031,1.015
10851.0,3.0019,-7.1657,-2.971,-1.0849,1.3031,1.015
10856.0,3.0019,-7.1657,-2.971,-1.0849,1.3031,1.015
10861.0,3.0019,-7.1657,-2.971,-1.0849,1.3031,1.015
10866.0,3.5862,-6.6175,-2.516,-1.0464,1.4081,1.0058
10872.0,3.5862,-6.6175,-2.516,-1.0464,1.4081,1.0058
10876.0,3.5862,-6.6175,-2.516,-1.0464,1.4081,1.0058
10881.0,3.5862,-6.6175,-2.516,-1.0464,1.4081,1.0058
10886.0,3.5862,-6.6175,-2.516,-1.0464,1.4081,1.0058
10891.0,3.5862,-6.6175,-2.516,-1.0464,1.4081,1.0058
10896.0,5.2289,-4.9348,-2.5587,-1.2871,1.4295,0.9918
10901.0,5.2289,-4.9348,-2.5587,-1.2871,1.4295,0.9918
10906.0,5.2289,-4.9348,-2.5587,-1.2871,1.4295,0.9918
10911.0,5.2289,-4.9348,-2.5587,-1.2871,1.4295,0.9918
10916.0,5.2289,-4.9348,-2.5587,-1.2871,1.4295,0.9918
10921.0,5.5067,-4.3628,-3.0231,-1.2871,1.4295,0.9918
10926.0,5.5067,-4.3628,-3.0231,-1.3494,1.1907,0.8592
10931.0,5.5067,-4.3628,-3.0231,-1.3494,1.1907,0.8592
10936.0,5.5067,-4.3628,-3.0231,-1.3494,1.1907,0.8592
10941.0,5.5067,-4.3628,-3.0231,-1.3494,1.1907,0.8592
10946.0,5.9425,-4.6154,-3.734,-1.3494,1.1907,0.8592
10951.0,5.9425,-4.6154,-3.734,-1.3494,1.1907,0.8592
10956.0,5.9425,-4.6154,-3.734,-1.1094,0.964,0.6588
10961.0,5.9425,-4.6154,-3.734,-1.1094,0.964,0.6588
10965.0,5.9425,-4.6154,-3.734,-1.1094,0.964,0.6588
10971.0,5.9425,-4.6154,-3.734,-1.1094,0.964,0.6588
10976.0,5.727,-5.0158,-2.5539,-1.1094,0.964,0.6588
10981.0,5.727,-5.0158,-2.5539,-1.1094,0.964,0.6588
10986.0,5.727,-5.0158,-2.5539,-0.5779,1.1094,0.6356
10991.0,5.727,-5.0158,-2.5539,-0.5779,1.1094,0.6356
10996.0,5.727,-5.0158,-2.5539,-0.5779,1.1094,0.6356
11002.0,5.8515,-5.7213,-2.6914,-0.5779,1.1094,0.6356
11006.0,5.8515,-5.7213,-2.6914,-0.5779,1.1094,0.6356
11011.0,5.8515,-5.7213,-2.6914,-0.5779,1.1094,0.6356
11016.0,5.8515,-5.7213,-2.6914,-0.0055,0.5908,0.5782
11021.0,5.8515,-5.7213,-2.6914,-0.0055,0.5908,0.5782
11026.0,6.8668,-7.3706,-3.3169,-0.0055,0.5908,0.5782
11031.0,6.8668,-7.3706,-3.3169,-0.0055,0.5908,0.5782
11036.0,6.8668,-7.3706,-3.3169,-0.0055,0.5908,0.5782
11041.0,6.8668,-7.3706,-3.3169,-0.0055,0.5908,0.5782
11046.0,6.8668,-7.3706,-3.3169,-0.0055,0.5908,0.5782
11051.0,6.8668,-7.3706,-3.3169,0.2449,0.1571,0.4426
11056.0,7.2308,-9.101,-5.2789,0.2449,0.1571,0.4426
11061.0,7.2308,-9.101,-5.2789,0.2449,0.1571,0.4426
11066.0,7.2308,-9.101,-5.2789,0.2449,0.1571,0.4426
11071.0,7.2308,-9.101,-5.2789,0.2449,0.1571,0.4426
11076.0,7.2308,-9.101,-5.2789,0.2449,0.1571,0.4426
11081.0,6.1867,-9.3012,-5.8192,0.4111,-1.0867,-0.291
11086.0,6.1867,-9.3012,-5.8192,0.4111,-1.0867,-0.291
11095.0,6.1867,-9.3012,-5.8192,0.4111,-1.0867,-0.291
11096.0,6.1867,-9.3012,-5.8192,0.4111,-1.0867,-0.291
11101.0,6.1867,-9.3012,-5.8192,0.4111,-1.0867,-0.291
