time in milliseconds,acceleration_x,acceleration_y,acceleration_z,Roll,Pitch,Yaw
4.0,-3.8802,-1.7077,4.3272,-0.885,-0.0764,-0.3535
9.0,-3.8802,-1.7077,4.3272,-1.9309,-0.0519,0.0246
14.0,-3.8802,-1.7077,4.3272,-1.9309,-0.0519,0.0246
19.0,-3.8802,-1.7077,4.3272,-1.9309,-0.0519,0.0246
24.0,-3.1906,-3.1759,4.2893,-1.9309,-0.0519,0.0246
29.0,-3.1906,-3.1759,4.2893,-1.9309,-0.0519,0.0246
34.0,-3.1906,-3.1759,4.2893,-1.9309,-0.0519,0.0246
39.0,-3.1906,-3.1759,4.2893,-1.9803,0.2584,0.2085
44.0,-3.1906,-3.1759,4.2893,-1.9803,0.2584,0.2085
49.0,-2.0459,-2.9852,4.5215,-1.9803,0.2584,0.2085
53.0,-2.0459,-2.9852,4.5215,-1.9803,0.2584,0.2085
59.0,-2.0459,-2.9852,4.5215,-1.9803,0.2584,0.2085
64.0,-2.0459,-2.9852,4.5215,-1.9803,0.2584,0.2085
69.0,-2.0459,-2.9852,4.5215,-1.5417,1.8802,0.2971
74.0,-2.0843,-4.3151,4.7395,-1.5417,1.8802,0.2971
79.0,-2.0843,-4.3151,4.7395,-1.5417,1.8802,0.2971
84.0,-2.0843,-4.3151,4.7395,-1.5417,1.8802,0.2971
89.0,-2.0843,-4.3151,4.7395,-1.5417,1.8802,0.2971
94.0,-2.0843,-4.3151,4.7395,-1.5417,1.8802,0.2971
98.0,-2.0843,-4.3151,4.7395,-1.5417,1.8802,0.2971
104.0,-1.9837,-4.9062,5.4787,-1.4532,3.2462,0.2207
109.0,-1.9837,-4.9062,5.4787,-1.4532,3.2462,0.2207
114.0,-1.9837,-4.9062,5.4787,-1.4532,3.2462,0.2207
118.0,-1.9837,-4.9062,5.4787,-1.4532,3.2462,0.2207
124.0,-1.9837,-4.9062,5.4787,-1.4532,3.2462,0.2207
129.0,0.0757,-4.4009,3.8627,-1.4532,3.2462,0.2207
134.0,0.0757,-4.4009,3.8627,-2.408,3.5937,0.1163
139.0,0.0757,-4.4009,3.8627,-2.408,3.5937,0.1163
143.0,0.0757,-4.4009,3.8627,-2.408,3.5937,0.1163
149.0,0.0757,-4.4009,3.8627,-2.408,3.5937,0.1163
154.0,0.7653,-6.2886,5.4171,-2.408,3.5937,0.1163
159.0,0.7653,-6.2886,5.4171,-2.408,3.5937,0.1163
163.0,0.7653,-6.2886,5.4171,-2.408,3.5937,0.1163
169.0,0.7653,-6.2886,5.4171,-4.1294,4.7452,-1.4335
174.0,0.7653,-6.2886,5.4171,-4.1294,4.7452,-1.4335
179.0,0.7653,-6.2886,5.4171,-4.1294,4.7452,-1.4335
184.0,-3.8227,-10.9028,8.308,-4.1294,4.7452,-1.4335
188.0,-3.8227,-10.9028,8.308,-4.1294,4.7452,-1.4335
194.0,-3.8227,-10.9028,8.308,-4.1294,4.7452,-1.4335
199.0,-3.8227,-10.9028,8.308,-5.1654,6.0855,-2.5257
204.0,-3.8227,-10.9028,8.308,-5.1654,6.0855,-2.5257
209.0,-6.112,-13.3148,9.2795,-5.1654,6.0855,-2.5257
213.0,-6.112,-13.3148,9.2795,-5.1654,6.0855,-2.5257
219.0,-6.112,-13.3148,9.2795,-5.1654,6.0855,-2.5257
224.0,-6.112,-13.3148,9.2795,-5.1654,6.0855,-2.5257
229.0,-6.112,-13.3148,9.2795,-5.1654,6.0855,-2.5257
234.0,-6.112,-13.3148,9.2795,-5.8948,5.1221,-1.0065
239.0,-13.0612,-13.8058,9.4927,-5.8948,5.1221,-1.0065
244.0,-13.0612,-13.8058,9.4927,-5.8948,5.1221,-1.0065
249.0,-13.0612,-13.8058,9.4927,-5.8948,5.1221,-1.0065
253.0,-13.0612,-13.8058,9.4927,-5.8948,5.1221,-1.0065
259.0,-13.0612,-13.8058,9.4927,-5.8948,5.1221,-1.0065
264.0,-19.3686,-11.6226,9.9951,-7.1501,2.5559,1.2464
269.0,-19.3686,-11.6226,9.9951,-7.1501,2.5559,1.2464
274.0,-19.3686,-11.6226,9.9951,-7.1501,2.5559,1.2464
279.0,-19.3686,-11.6226,9.9951,-7.1501,2.5559,1.2464
284.0,-19.3686,-11.6226,9.9951,-7.1501,2.5559,1.2464
289.0,-21.9452,-10.4023,11.4168,-7.1501,2.5559,1.2464
294.0,-21.9452,-10.4023,11.4168,-4.6773,1.0623,1.3001
299.0,-21.9452,-10.4023,11.4168,-4.6773,1.0623,1.3001
304.0,-21.9452,-10.4023,11.4168,-4.6773,1.0623,1.3001
309.0,-21.9452,-10.4023,11.4168,-4.6773,1.0623,1.3001
314.0,-21.9452,-10.4023,11.4168,-4.6773,1.0623,1.3001
318.0,-19.1722,-6.7605,7.2938,-4.6773,1.0623,1.3001
324.0,-19.1722,-6.7605,7.2938,-4.6773,1.0623,1.3001
329.0,-19.1722,-6.7605,7.2938,-3.13,-0.4893,1.1786
334.0,-19.1722,-6.7605,7.2938,-3.13,-0.4893,1.1786
338.0,-19.1722,-6.7605,7.2938,-3.13,-0.4893,1.1786
344.0,-16.5429,-5.8834,5.8958,-3.13,-0.4893,1.1786
349.0,-16.5429,-5.8834,5.8958,-3.13,-0.4893,1.1786
354.0,-16.5429,-5.8834,5.8958,-3.13,-0.4893,1.1786
358.0,-16.5429,-5.8834,5.8958,-2.0842,-0.7135,0.8805
364.0,-16.5429,-5.8834,5.8958,-2.0842,-0.7135,0.8805
369.0,-16.5429,-5.8834,5.8958,-2.0842,-0.7135,0.8805
374.0,-13.8753,-4.501,4.4314,-2.0842,-0.7135,0.8805
379.0,-13.8753,-4.501,4.4314,-2.0842,-0.7135,0.8805
383.0,-13.8753,-4.501,4.4314,-2.0842,-0.7135,0.8805
389.0,-13.8753,-4.501,4.4314,-0.4061,-0.2938,0.7125
394.0,-13.8753,-4.501,4.4314,-0.4061,-0.2938,0.7125
399.0,-9.5555,-2.5991,-4.2363,-0.4061,-0.2938,0.7125
403.0,-9.5555,-2.5991,-4.2363,-0.4061,-0.2938,0.7125
409.0,-9.5555,-2.5991,-4.2363,-0.4061,-0.2938,0.7125
414.0,-9.5555,-2.5991,-4.2363,-0.4061,-0.2938,0.7125
419.0,-9.5555,-2.5991,-4.2363,-0.7757,-2.9407,-2.453
424.0,-9.4309,-5.5831,0.4174,-0.7757,-2.9407,-2.453
429.0,-9.4309,-5.5831,0.4174,-0.7757,-2.9407,-2.453
434.0,-9.4309,-5.5831,0.4174,-0.7757,-2.9407,-2.453
439.0,-9.4309,-5.5831,0.4174,-0.7757,-2.9407,-2.453
444.0,-9.4309,-5.5831,0.4174,-0.7757,-2.9407,-2.453
449.0,-9.4309,-5.5831,0.4174,-0.7757,-2.9407,-2.453
454.0,-9.4309,-5.5831,0.4174,-0.7757,-2.9407,-2.453
459.0,-9.4309,-5.5831,0.4174,-0.7757,-2.9407,-2.453
464.0,-4.6848,-6.8749,0.8345,-1.2833,-0.5638,-4.0315
469.0,-4.6848,-6.8749,0.8345,-1.2833,-0.5638,-4.0315
474.0,-4.6848,-6.8749,0.8345,-1.2833,-0.5638,-4.0315
481.0,-4.6848,-6.8749,0.8345,-1.2833,-0.5638,-4.0315
484.0,-4.6848,-6.8749,0.8345,-1.2833,-0.5638,-4.0315
488.0,-4.6848,-6.8749,0.8345,-1.2833,-0.5638,-4.0315
494.0,-4.6848,-6.8749,0.8345,-1.2833,-0.5638,-4.0315
499.0,-4.6848,-6.8749,0.8345,-1.2833,-0.5638,-4.0315
504.0,-4.6848,-6.8749,0.8345,-1.2833,-0.5638,-4.0315
509.0,-4.6848,-6.8749,0.8345,-1.2833,-0.5638,-4.0315
514.0,-4.6848,-6.8749,0.8345,-1.2833,-0.5638,-4.0315
519.0,2.5278,-9.7302,-8.6436,-1.7574,5.5394,-0.6925
524.0,2.5278,-9.7302,-8.6436,-1.7574,5.5394,-0.6925
535.0,2.5278,-9.7302,-8.6436,-1.7574,5.5394,-0.6925
535.0,2.5278,-9.7302,-8.6436,-1.7574,5.5394,-0.6925
539.0,2.5278,-9.7302,-8.6436,-1.7574,5.5394,-0.6925
544.0,2.5278,-9.7302,-8.6436,-1.7574,5.5394,-0.6925
549.0,-2.3046,-11.6894,1.0904,0.0563,2.5937,1.6447
554.0,-2.3046,-11.6894,1.0904,0.0563,2.5937,1.6447
560.0,-2.3046,-11.6894,1.0904,0.0563,2.5937,1.6447
564.0,-2.3046,-11.6894,1.0904,0.0563,2.5937,1.6447
570.0,-2.3046,-11.6894,1.0904,0.0563,2.5937,1.6447
574.0,-2.3046,-11.6894,1.0904,0.0563,2.5937,1.6447
578.0,-2.3046,-11.6894,1.0904,0.0563,2.5937,1.6447
586.0,-3.3486,-10.7217,5.6446,1.0722,2.6402,1.7986
590.0,-3.3486,-10.7217,5.6446,1.0722,2.6402,1.7986
595.0,-3.3486,-10.7217,5.6446,1.0722,2.6402,1.7986
600.0,-3.3486,-10.7217,5.6446,1.0722,2.6402,1.7986
604.0,-3.3486,-10.7217,5.6446,1.0722,2.6402,1.7986
609.0,-6.476,-12.0326,4.1518,1.0722,2.6402,1.7986
614.0,-6.476,-12.0326,4.1518,1.5627,2.6884,1.1682
619.0,-6.476,-12.0326,4.1518,1.5627,2.6884,1.1682
624.0,-6.476,-12.0326,4.1518,1.5627,2.6884,1.1682
629.0,-6.476,-12.0326,4.1518,1.5627,2.6884,1.1682
633.0,-6.476,-12.0326,4.1518,1.5627,2.6884,1.1682
639.0,-8.157,-9.5967,2.6164,1.5627,2.6884,1.1682
644.0,-8.157,-9.5967,2.6164,2.4918,1.6933,1.8725
649.0,-8.157,-9.5967,2.6164,2.4918,1.6933,1.8725
654.0,-8.157,-9.5967,2.6164,2.4918,1.6933,1.8725
659.0,-8.157,-9.5967,2.6164,2.4918,1.6933,1.8725
664.0,-1.9406,-9.6349,5.0665,2.4918,1.6933,1.8725
669.0,-1.9406,-9.6349,5.0665,2.4918,1.6933,1.8725
674.0,-1.9406,-9.6349,5.0665,2.0978,2.3781,1.7693
678.0,-1.9406,-9.6349,5.0665,2.0978,2.3781,1.7693
684.0,-1.9406,-9.6349,5.0665,2.0978,2.3781,1.7693
689.0,1.0096,-9.816,4.2656,2.0978,2.3781,1.7693
693.0,1.0096,-9.816,4.2656,2.0978,2.3781,1.7693
699.0,1.0096,-9.816,4.2656,2.0978,2.3781,1.7693
704.0,1.0096,-9.816,4.2656,1.5016,2.43,1.3075
709.0,1.0096,-9.816,4.2656,1.5016,2.43,1.3075
714.0,1.0096,-9.816,4.2656,1.5016,2.43,1.3075
719.0,-0.7816,-8.8245,2.4931,1.5016,2.43,1.3075
724.0,-0.7816,-8.8245,2.4931,1.5016,2.43,1.3075
729.0,-0.7816,-8.8245,2.4931,1.5016,2.43,1.3075
735.0,-0.7816,-8.8245,2.4931,0.9066,0.5467,0.7546
739.0,-0.7816,-8.8245,2.4931,0.9066,0.5467,0.7546
744.0,-0.4559,-8.243,0.3369,0.9066,0.5467,0.7546
749.0,-0.4559,-8.243,0.3369,0.9066,0.5467,0.7546
754.0,-0.4559,-8.243,0.3369,0.9066,0.5467,0.7546
759.0,-0.4559,-8.243,0.3369,0.9066,0.5467,0.7546
764.0,-0.4559,-8.243,0.3369,0.9066,0.5467,0.7546
769.0,-2.5823,-7.18,-0.9758,-0.3298,-0.7306,-0.3773
774.0,-2.5823,-7.18,-0.9758,-0.3298,-0.7306,-0.3773
779.0,-2.5823,-7.18,-0.9758,-0.3298,-0.7306,-0.3773
784.0,-2.5823,-7.18,-0.9758,-0.3298,-0.7306,-0.3773
789.0,-2.5823,-7.18,-0.9758,-0.3298,-0.7306,-0.3773
793.0,-2.5823,-7.18,-0.9758,-0.3298,-0.7306,-0.3773
799.0,-6.3419,-5.6403,-0.246,0.7808,-0.6494,-1.0047
804.0,-6.3419,-5.6403,-0.246,0.7808,-0.6494,-1.0047
810.0,-6.3419,-5.6403,-0.246,0.7808,-0.6494,-1.0047
814.0,-6.3419,-5.6403,-0.246,0.7808,-0.6494,-1.0047
819.0,-6.3419,-5.6403,-0.246,0.7808,-0.6494,-1.0047
824.0,-12.6253,-6.5651,-0.355,0.7808,-0.6494,-1.0047
829.0,-12.6253,-6.5651,-0.355,4.5761,2.4655,-1.0547
834.0,-12.6253,-6.5651,-0.355,4.5761,2.4655,-1.0547
839.0,-12.6253,-6.5651,-0.355,4.5761,2.4655,-1.0547
844.0,-12.6253,-6.5651,-0.355,4.5761,2.4655,-1.0547
849.0,-12.6253,-6.5651,-0.355,4.5761,2.4655,-1.0547
854.0,-12.6253,-6.5651,-0.355,4.5761,2.4655,-1.0547
859.0,-12.6253,-6.5651,-0.355,4.5761,2.4655,-1.0547
864.0,-12.6253,-6.5651,-0.355,4.5761,2.4655,-1.0547
878.0,-7.4386,-9.3155,1.3368,4.7221,1.0208,-0.0065
878.0,-7.4386,-9.3155,1.3368,4.7221,1.0208,-0.0065
879.0,-7.4386,-9.3155,1.3368,4.7221,1.0208,-0.0065
884.0,-7.4386,-9.3155,1.3368,4.7221,1.0208,-0.0065
889.0,-7.4386,-9.3155,1.3368,4.7221,1.0208,-0.0065
894.0,-7.4386,-9.3155,1.3368,4.7221,1.0208,-0.0065
899.0,-9.8476,-2.8088,2.0429,4.7221,1.0208,-0.0065
904.0,-9.8476,-2.8088,2.0429,4.7221,1.0208,-0.0065
909.0,-9.8476,-2.8088,2.0429,4.7221,1.0208,-0.0065
913.0,-9.8476,-2.8088,2.0429,0.5175,1.1594,-3.9875
919.0,-9.8476,-2.8088,2.0429,0.5175,1.1594,-3.9875
924.0,-4.6752,-4.5868,3.6116,0.5175,1.1594,-3.9875
928.0,-4.6752,-4.5868,3.6116,0.5175,1.1594,-3.9875
934.0,-4.6752,-4.5868,3.6116,0.5175,1.1594,-3.9875
939.0,-4.6752,-4.5868,3.6116,0.5175,1.1594,-3.9875
944.0,-4.6752,-4.5868,3.6116,2.3758,-2.9346,-1.9698
949.0,-3.1331,-4.4486,4.6968,2.3758,-2.9346,-1.9698
954.0,-3.1331,-4.4486,4.6968,2.3758,-2.9346,-1.9698
958.0,-3.1331,-4.4486,4.6968,2.3758,-2.9346,-1.9698
964.0,-3.1331,-4.4486,4.6968,2.3758,-2.9346,-1.9698
969.0,-3.1331,-4.4486,4.6968,2.3758,-2.9346,-1.9698
974.0,-3.1331,-4.4486,4.6968,2.3758,-2.9346,-1.9698
979.0,-0.8295,-2.8898,1.7254,1.3697,-1.9542,-1.056
984.0,-0.8295,-2.8898,1.7254,1.3697,-1.9542,-1.056
989.0,-0.8295,-2.8898,1.7254,1.3697,-1.9542,-1.056
994.0,-0.8295,-2.8898,1.7254,1.3697,-1.9542,-1.056
999.0,-0.8295,-2.8898,1.7254,1.3697,-1.9542,-1.056
1004.0,-0.8295,-2.8898,1.7254,1.3697,-1.9542,-1.056
1008.0,-2.0459,-2.9232,-7.3973,-1.7085,4.4056,-0.453
1014.0,-2.0459,-2.9232,-7.3973,-1.7085,4.4056,-0.453
1019.0,-2.0459,-2.9232,-7.3973,-1.7085,4.4056,-0.453
1024.0,-2.0459,-2.9232,-7.3973,-1.7085,4.4056,-0.453
1029.0,-2.0459,-2.9232,-7.3973,-1.7085,4.4056,-0.453
1034.0,-4.9386,-4.215,-0.9474,-1.7085,4.4056,-0.453
1039.0,-4.9386,-4.215,-0.9474,-1.7085,4.4056,-0.453
1044.0,-4.9386,-4.215,-0.9474,-2.2882,1.8949,-0.5618
1048.0,-4.9386,-4.215,-0.9474,-2.2882,1.8949,-0.5618
1054.0,-4.9386,-4.215,-0.9474,-2.2882,1.8949,-0.5618
1059.0,-5.748,-7.2276,1.2894,-2.2882,1.8949,-0.5618
1064.0,-5.748,-7.2276,1.2894,-2.2882,1.8949,-0.5618
1069.0,-5.748,-7.2276,1.2894,-2.2882,1.8949,-0.5618
1074.0,-5.748,-7.2276,1.2894,-1.9541,1.799,1.1535
1079.0,-5.748,-7.2276,1.2894,-1.9541,1.799,1.1535
1084.0,-5.748,-7.2276,1.2894,-1.9541,1.799,1.1535
1089.0,-4.0,-4.6536,-1.0801,-1.9541,1.799,1.1535
1094.0,-4.0,-4.6536,-1.0801,-1.9541,1.799,1.1535
1099.0,-4.0,-4.6536,-1.0801,-1.9541,1.799,1.1535
1104.0,-4.0,-4.6536,-1.0801,-2.5155,1.7672,1.3069
1109.0,-4.0,-4.6536,-1.0801,-2.5155,1.7672,1.3069
1114.0,-1.7682,-3.3332,-2.3028,-2.5155,1.7672,1.3069
1119.0,-1.7682,-3.3332,-2.3028,-2.5155,1.7672,1.3069
1124.0,-1.7682,-3.3332,-2.3028,-2.5155,1.7672,1.3069
1129.0,-1.7682,-3.3332,-2.3028,-2.5155,1.7672,1.3069
1134.0,-1.7682,-3.3332,-2.3028,-5.5429,1.2755,1.1975
1139.0,-1.7682,-3.3332,-2.3028,-5.5429,1.2755,1.1975
1144.0,-0.6571,-3.9004,-2.7672,-5.5429,1.2755,1.1975
1151.0,-0.6571,-3.9004,-2.7672,-5.5429,1.2755,1.1975
1154.0,-0.6571,-3.9004,-2.7672,-5.5429,1.2755,1.1975
1159.0,-0.6571,-3.9004,-2.7672,-5.5429,1.2755,1.1975
1164.0,-0.6571,-3.9004,-2.7672,-7.265,0.9908,-0.3351
1169.0,-0.3266,-7.0989,-3.2932,-7.265,0.9908,-0.3351
1174.0,-0.3266,-7.0989,-3.2932,-7.265,0.9908,-0.3351
1179.0,-0.3266,-7.0989,-3.2932,-7.265,0.9908,-0.3351
1184.0,-0.3266,-7.0989,-3.2932,-7.265,0.9908,-0.3351
1189.0,-0.3266,-7.0989,-3.2932,-7.265,0.9908,-0.3351
1196.0,-2.9798,-15.2263,-7.1745,-6.0689,0.5235,-1.5105
1199.0,-2.9798,-15.2263,-7.1745,-6.0689,0.5235,-1.5105
1204.0,-2.9798,-15.2263,-7.1745,-6.0689,0.5235,-1.5105
1209.0,-2.9798,-15.2263,-7.1745,-6.0689,0.5235,-1.5105
1214.0,-2.9798,-15.2263,-7.1745,-6.0689,0.5235,-1.5105
1219.0,-2.9798,-15.2263,-7.1745,-6.0689,0.5235,-1.5105
1224.0,-11.088,-33.0637,-4.1937,-6.0689,0.5235,-1.5105
1229.0,-11.088,-33.0637,-4.1937,-0.8258,1.686,-3.3535
1234.0,-11.088,-33.0637,-4.1937,-0.8258,1.686,-3.3535
1239.0,-11.088,-33.0637,-4.1937,-0.8258,1.686,-3.3535
1244.0,-11.088,-33.0637,-4.1937,-0.8258,1.686,-3.3535
1249.0,-9.3447,-32.9732,-2.4686,-0.8258,1.686,-3.3535
1254.0,-9.3447,-32.9732,-2.4686,-0.8258,1.686,-3.3535
1259.0,-9.3447,-32.9732,-2.4686,3.7111,1.8039,-0.2014
1264.0,-9.3447,-32.9732,-2.4686,3.7111,1.8039,-0.2014
1269.0,-9.3447,-32.9732,-2.4686,3.7111,1.8039,-0.2014
1274.0,-1.8448,-6.9321,5.493,3.7111,1.8039,-0.2014
1279.0,-1.8448,-6.9321,5.493,3.7111,1.8039,-0.2014
1284.0,-1.8448,-6.9321,5.493,3.7111,1.8039,-0.2014
1289.0,-1.8448,-6.9321,5.493,2.0514,0.945,0.1187
1294.0,-1.8448,-6.9321,5.493,2.0514,0.945,0.1187
1299.0,-1.8448,-6.9321,5.493,2.0514,0.945,0.1187
1304.0,0.7893,-4.8633,-1.0801,2.0514,0.945,0.1187
1309.0,0.7893,-4.8633,-1.0801,2.0514,0.945,0.1187
1314.0,0.7893,-4.8633,-1.0801,2.0514,0.945,0.1187
1319.0,0.7893,-4.8633,-1.0801,-0.4568,-1.8021,1.7162
1324.0,0.7893,-4.8633,-1.0801,-0.4568,-1.8021,1.7162
1329.0,-3.8371,-11.9039,-6.1272,-0.4568,-1.8021,1.7162
1333.0,-3.8371,-11.9039,-6.1272,-0.4568,-1.8021,1.7162
1339.0,-3.8371,-11.9039,-6.1272,-0.4568,-1.8021,1.7162
1344.0,-3.8371,-11.9039,-6.1272,-0.4568,-1.8021,1.7162
1349.0,-3.8371,-11.9039,-6.1272,-0.4837,-1.9823,0.4913
1354.0,-8.2767,-11.4892,-6.8096,-0.4837,-1.9823,0.4913
1359.0,-8.2767,-11.4892,-6.8096,-0.4837,-1.9823,0.4913
1364.0,-8.2767,-11.4892,-6.8096,-0.4837,-1.9823,0.4913
1370.0,-8.2767,-11.4892,-6.8096,-0.4837,-1.9823,0.4913
1374.0,-8.2767,-11.4892,-6.8096,-0.4837,-1.9823,0.4913
1379.0,-8.2767,-11.4892,-6.8096,0.8516,0.989,-1.7805
1384.0,-4.5507,-10.8123,-2.971,0.8516,0.989,-1.7805
1389.0,-4.5507,-10.8123,-2.971,0.8516,0.989,-1.7805
1394.0,-4.5507,-10.8123,-2.971,0.8516,0.989,-1.7805
1399.0,-4.5507,-10.8123,-2.971,0.8516,0.989,-1.7805
1404.0,-4.5507,-10.8123,-2.971,0.8516,0.989,-1.7805
1409.0,-1.7873,-7.1561,0.2231,0.3568,1.4074,-1.4824
1414.0,-1.7873,-7.1561,0.2231,0.3568,1.4074,-1.4824
1420.0,-1.7873,-7.1561,0.2231,0.3568,1.4074,-1.4824
1424.0,-1.7873,-7.1561,0.2231,0.3568,1.4074,-1.4824
1429.0,-1.7873,-7.1561,0.2231,0.3568,1.4074,-1.4824
1434.0,-1.7873,-7.1561,0.2231,0.3568,1.4074,-1.4824
1439.0,-1.7873,-7.4707,1.4221,-0.0274,0.8442,-0.5294
1444.0,-1.7873,-7.4707,1.4221,-0.0274,0.8442,-0.5294
1449.0,-1.7873,-7.4707,1.4221,-0.0274,0.8442,-0.5294
1454.0,-1.7873,-7.4707,1.4221,-0.0274,0.8442,-0.5294
1459.0,-1.7873,-7.4707,1.4221,-0.0274,0.8442,-0.5294
1464.0,-2.2854,-7.2229,-0.8195,-0.0274,0.8442,-0.5294
1469.0,-2.2854,-7.2229,-0.8195,-0.0274,0.8442,-0.5294
1474.0,-2.2854,-7.2229,-0.8195,0.6061,-0.1723,0.2971
1479.0,-2.2854,-7.2229,-0.8195,0.6061,-0.1723,0.2971
1485.0,-2.2854,-7.2229,-0.8195,0.6061,-0.1723,0.2971
1489.0,-2.9511,-8.8055,-3.3027,0.6061,-0.1723,0.2971
1494.0,-2.9511,-8.8055,-3.3027,0.6061,-0.1723,0.2971
1499.0,-2.9511,-8.8055,-3.3027,0.6061,-0.1723,0.2971
1504.0,-2.9511,-8.8055,-3.3027,1.2273,-1.4209,0.7076
1509.0,-2.9511,-8.8055,-3.3027,1.2273,-1.4209,0.7076
1513.0,-2.9511,-8.8055,-3.3027,1.2273,-1.4209,0.7076
1520.0,-3.1666,-9.611,-4.7386,1.2273,-1.4209,0.7076
1524.0,-3.1666,-9.611,-4.7386,1.2273,-1.4209,0.7076
1530.0,-3.1666,-9.611,-4.7386,1.2273,-1.4209,0.7076
1534.0,-3.1666,-9.611,-4.7386,1.3104,-1.4734,-0.2325
1539.0,-3.1666,-9.611,-4.7386,1.3104,-1.4734,-0.2325
1544.0,-2.8122,-10.1545,-3.5539,1.3104,-1.4734,-0.2325
1549.0,-2.8122,-10.1545,-3.5539,1.3104,-1.4734,-0.2325
1554.0,-2.8122,-10.1545,-3.5539,1.3104,-1.4734,-0.2325
1559.0,-2.8122,-10.1545,-3.5539,1.3104,-1.4734,-0.2325
1565.0,-2.8122,-10.1545,-3.5539,0.7301,-0.5504,-1.8464
1569.0,-3.2959,-6.9512,-0.2034,0.7301,-0.5504,-1.8464
1574.0,-3.2959,-6.9512,-0.2034,0.7301,-0.5504,-1.8464
1580.0,-3.2959,-6.9512,-0.2034,0.7301,-0.5504,-1.8464
1585.0,-3.2959,-6.9512,-0.2034,0.7301,-0.5504,-1.8464
1589.0,-3.2959,-6.9512,-0.2034,0.7301,-0.5504,-1.8464
1594.0,-3.5162,-7.5518,-2.0232,0.6886,0.5828,0.7986
1598.0,-3.5162,-7.5518,-2.0232,0.6886,0.5828,0.7986
1605.0,-3.5162,-7.5518,-2.0232,0.6886,0.5828,0.7986
1610.0,-3.5162,-7.5518,-2.0232,0.6886,0.5828,0.7986
1614.0,-3.5162,-7.5518,-2.0232,0.6886,0.5828,0.7986
1619.0,-3.5162,-7.5518,-2.0232,0.6886,0.5828,0.7986
1624.0,-3.5162,-7.5518,-2.0232,0.7936,-0.7654,0.7339
1629.0,-3.272,-8.324,-3.4686,0.7936,-0.7654,0.7339
1635.0,-3.272,-8.324,-3.4686,0.7936,-0.7654,0.7339
1639.0,-3.272,-8.324,-3.4686,0.7936,-0.7654,0.7339
1644.0,-3.272,-8.324,-3.4686,0.7936,-0.7654,0.7339
1649.0,-3.272,-8.324,-3.4686,0.7936,-0.7654,0.7339
1654.0,-3.8515,-7.9856,1.4174,0.7936,-0.7654,0.7339
1660.0,-3.8515,-7.9856,1.4174,0.5273,-0.5418,-0.5599
1664.0,-3.8515,-7.9856,1.4174,0.5273,-0.5418,-0.5599
1668.0,-3.8515,-7.9856,1.4174,0.5273,-0.5418,-0.5599
1674.0,-3.8515,-7.9856,1.4174,0.5273,-0.5418,-0.5599
1679.0,-4.9482,-6.751,-0.8052,0.5273,-0.5418,-0.5599
1684.0,-4.9482,-6.751,-0.8052,0.1052,0.6848,-0.5428
1690.0,-4.9482,-6.751,-0.8052,0.1052,0.6848,-0.5428
1694.0,-4.9482,-6.751,-0.8052,0.1052,0.6848,-0.5428
1700.0,-4.9482,-6.751,-0.8052,0.1052,0.6848,-0.5428
1703.0,-4.9482,-6.751,-0.8052,0.1052,0.6848,-0.5428
1709.0,-4.9482,-6.751,-0.8052,0.1052,0.6848,-0.5428
1714.0,-5.1637,-6.5174,-2.2412,0.1052,0.6848,-0.5428
1719.0,-5.1637,-6.5174,-2.2412,0.1052,0.6848,-0.5428
1724.0,-5.1637,-6.5174,-2.2412,-0.1508,0.2993,0.1865
1729.0,-5.1637,-6.5174,-2.2412,-0.1508,0.2993,0.1865
1734.0,-5.1637,-6.5174,-2.2412,-0.1508,0.2993,0.1865
1739.0,-5.1637,-6.5174,-2.2412,-0.1508,0.2993,0.1865
1744.0,-5.1637,-6.5174,-2.2412,-0.1508,0.2993,0.1865
1749.0,-4.5076,-6.8177,-1.6061,-0.1508,0.2993,0.1865
1754.0,-4.5076,-6.8177,-1.6061,-0.3725,0.4135,0.6392
1759.0,-4.5076,-6.8177,-1.6061,-0.3725,0.4135,0.6392
1764.0,-4.5076,-6.8177,-1.6061,-0.3725,0.4135,0.6392
1768.0,-4.5076,-6.8177,-1.6061,-0.3725,0.4135,0.6392
1774.0,-4.3879,-7.7281,-1.1749,-0.3725,0.4135,0.6392
1779.0,-4.3879,-7.7281,-1.1749,-0.3725,0.4135,0.6392
1784.0,-4.3879,-7.7281,-1.1749,-0.728,1.2223,0.8249
1789.0,-4.3879,-7.7281,-1.1749,-0.728,1.2223,0.8249
1794.0,-4.3879,-7.7281,-1.1749,-0.728,1.2223,0.8249
1799.0,-4.3879,-7.7281,-1.1749,-0.728,1.2223,0.8249
1804.0,-5.4415,-8.4622,-3.5586,-0.728,1.2223,0.8249
1808.0,-5.4415,-8.4622,-3.5586,-0.728,1.2223,0.8249
1814.0,-5.4415,-8.4622,-3.5586,-0.728,1.2223,0.8249
1819.0,-5.4415,-8.4622,-3.5586,-0.5106,0.5718,0.9306
1824.0,-5.4415,-8.4622,-3.5586,-0.5106,0.5718,0.9306
1829.0,-5.6187,-7.3754,-1.9331,-0.5106,0.5718,0.9306
1834.0,-5.6187,-7.3754,-1.9331,-0.5106,0.5718,0.9306
1839.0,-5.6187,-7.3754,-1.9331,-0.5106,0.5718,0.9306
1844.0,-5.6187,-7.3754,-1.9331,-0.5106,0.5718,0.9306
1849.0,-5.6187,-7.3754,-1.9331,0.1443,0.0825,0.9752
1854.0,-4.5794,-8.4813,-3.2648,0.1443,0.0825,0.9752
1859.0,-4.5794,-8.4813,-3.2648,0.1443,0.0825,0.9752
1864.0,-4.5794,-8.4813,-3.2648,0.1443,0.0825,0.9752
1869.0,-4.5794,-8.4813,-3.2648,0.1443,0.0825,0.9752
1874.0,-4.5794,-8.4813,-3.2648,0.1443,0.0825,0.9752
1879.0,-4.5794,-8.4813,-3.2648,0.4687,-0.1417,0.2947
1884.0,-4.2969,-8.3383,-2.8904,0.4687,-0.1417,0.2947
1889.0,-4.2969,-8.3383,-2.8904,0.4687,-0.1417,0.2947
1894.0,-4.2969,-8.3383,-2.8904,0.4687,-0.1417,0.2947
1899.0,-4.2969,-8.3383,-2.8904,0.4687,-0.1417,0.2947
1904.0,-4.2969,-8.3383,-2.8904,0.4687,-0.1417,0.2947
1909.0,-4.2969,-8.3383,-2.8904,0.4687,-0.1417,0.2947
1915.0,-4.2442,-9.6396,-3.0136,0.1101,-0.2645,0.1083
1919.0,-4.2442,-9.6396,-3.0136,0.1101,-0.2645,0.1083
1924.0,-4.2442,-9.6396,-3.0136,0.1101,-0.2645,0.1083
1929.0,-4.2442,-9.6396,-3.0136,0.1101,-0.2645,0.1083
1934.0,-4.2442,-9.6396,-3.0136,0.1101,-0.2645,0.1083
1939.0,-2.9894,-9.4538,-1.5114,0.1101,-0.2645,0.1083
1945.0,-2.9894,-9.4538,-1.5114,0.2384,-0.6097,-0.0456
1949.0,-2.9894,-9.4538,-1.5114,0.2384,-0.6097,-0.0456
1954.0,-2.9894,-9.4538,-1.5114,0.2384,-0.6097,-0.0456
1959.0,-2.9894,-9.4538,-1.5114,0.2384,-0.6097,-0.0456
1964.0,-2.9894,-9.4538,-1.5114,0.2384,-0.6097,-0.0456
1969.0,-2.4866,-9.8542,-0.8668,0.2384,-0.6097,-0.0456
1974.0,-2.4866,-9.8542,-0.8668,0.3459,-0.9017,-0.2301
1979.0,-2.4866,-9.8542,-0.8668,0.3459,-0.9017,-0.2301
1984.0,-2.4866,-9.8542,-0.8668,0.3459,-0.9017,-0.2301
1989.0,-2.4866,-9.8542,-0.8668,0.3459,-0.9017,-0.2301
1994.0,-3.1906,-11.7275,-1.0138,0.3459,-0.9017,-0.2301
1999.0,-3.1906,-11.7275,-1.0138,0.3459,-0.9017,-0.2301
2004.0,-3.1906,-11.7275,-1.0138,0.3129,-1.0678,0.0479
2009.0,-3.1906,-11.7275,-1.0138,0.3129,-1.0678,0.0479
2014.0,-3.1906,-11.7275,-1.0138,0.3129,-1.0678,0.0479
2019.0,-4.4645,-12.9716,-3.4259,0.3129,-1.0678,0.0479
2025.0,-4.4645,-12.9716,-3.4259,0.3129,-1.0678,0.0479
2029.0,-4.4645,-12.9716,-3.4259,0.3129,-1.0678,0.0479
2034.0,-4.4645,-12.9716,-3.4259,0.3129,-1.0678,0.0479
2039.0,-4.4645,-12.9716,-3.4259,-0.3505,-0.2633,-0.3975
2044.0,-4.4645,-12.9716,-3.4259,-0.3505,-0.2633,-0.3975
2050.0,-6.2461,-7.4612,-1.8099,-0.3505,-0.2633,-0.3975
2055.0,-6.2461,-7.4612,-1.8099,-0.3505,-0.2633,-0.3975
2059.0,-6.2461,-7.4612,-1.8099,-0.3505,-0.2633,-0.3975
2064.0,-6.2461,-7.4612,-1.8099,-0.3505,-0.2633,-0.3975
2069.0,-6.2461,-7.4612,-1.8099,-0.3371,-0.011,-0.7096
2074.0,-6.3419,-5.2303,3.2751,-0.3371,-0.011,-0.7096
2079.0,-6.3419,-5.2303,3.2751,-0.3371,-0.011,-0.7096
2084.0,-6.3419,-5.2303,3.2751,-0.3371,-0.011,-0.7096
2089.0,-6.3419,-5.2303,3.2751,-0.3371,-0.011,-0.7096
2094.0,-6.3419,-5.2303,3.2751,-0.3371,-0.011,-0.7096
2100.0,-6.3419,-5.2303,3.2751,0.0875,1.2083,-0.3455
2104.0,-7.5823,-6.0836,1.8392,0.0875,1.2083,-0.3455
2109.0,-7.5823,-6.0836,1.8392,0.0875,1.2083,-0.3455
2113.0,-7.5823,-6.0836,1.8392,0.0875,1.2083,-0.3455
2119.0,-7.5823,-6.0836,1.8392,0.0875,1.2083,-0.3455
2124.0,-7.5823,-6.0836,1.8392,0.0875,1.2083,-0.3455
2129.0,-8.7317,-7.7997,-1.2507,0.4522,1.0525,0.9587
2134.0,-8.7317,-7.7997,-1.2507,0.4522,1.0525,0.9587
2139.0,-8.7317,-7.7997,-1.2507,0.4522,1.0525,0.9587
2143.0,-8.7317,-7.7997,-1.2507,0.4522,1.0525,0.9587
2149.0,-8.7317,-7.7997,-1.2507,0.4522,1.0525,0.9587
2154.0,-4.4741,-9.6682,-2.2507,0.4522,1.0525,0.9587
2159.0,-4.4741,-9.6682,-2.2507,0.4894,2.8265,0.3881
2164.0,-4.4741,-9.6682,-2.2507,0.4894,2.8265,0.3881
2169.0,-4.4741,-9.6682,-2.2507,0.4894,2.8265,0.3881
2174.0,-4.4741,-9.6682,-2.2507,0.4894,2.8265,0.3881
2179.0,-4.4741,-9.6682,-2.2507,0.4894,2.8265,0.3881
2185.0,-1.5527,-9.8875,-2.317,0.4894,2.8265,0.3881
2189.0,-1.5527,-9.8875,-2.317,-0.0109,2.4594,-0.0114
2194.0,-1.5527,-9.8875,-2.317,-0.0109,2.4594,-0.0114
2199.0,-1.5527,-9.8875,-2.317,-0.0109,2.4594,-0.0114
2205.0,-1.5527,-9.8875,-2.317,-0.0109,2.4594,-0.0114
2209.0,-0.6571,-9.6635,-1.7815,-0.0109,2.4594,-0.0114
2214.0,-0.6571,-9.6635,-1.7815,-0.0109,2.4594,-0.0114
2219.0,-0.6571,-9.6635,-1.7815,-0.4476,-0.3671,-0.2973
2224.0,-0.6571,-9.6635,-1.7815,-0.4476,-0.3671,-0.2973
2229.0,-0.6571,-9.6635,-1.7815,-0.4476,-0.3671,-0.2973
2234.0,-1.5143,-9.6492,-1.3502,-0.4476,-0.3671,-0.2973
2240.0,-1.5143,-9.6492,-1.3502,-0.4476,-0.3671,-0.2973
2243.0,-1.5143,-9.6492,-1.3502,-0.4476,-0.3671,-0.2973
2250.0,-1.5143,-9.6492,-1.3502,-0.4476,-0.3671,-0.2973
2254.0,-1.5143,-9.6492,-1.3502,0.1412,-0.9487,-1.1513
2259.0,-1.5143,-9.6492,-1.3502,0.1412,-0.9487,-1.1513
2264.0,-4.9817,-8.1858,-0.5777,0.1412,-0.9487,-1.1513
2269.0,-4.9817,-8.1858,-0.5777,0.1412,-0.9487,-1.1513
2274.0,-4.9817,-8.1858,-0.5777,0.1412,-0.9487,-1.1513
2279.0,-4.9817,-8.1858,-0.5777,0.7167,-1.0831,-1.0902
2284.0,-4.9817,-8.1858,-0.5777,0.7167,-1.0831,-1.0902
2289.0,-6.1024,-7.5184,-0.9664,0.7167,-1.0831,-1.0902
2294.0,-6.1024,-7.5184,-0.9664,0.7167,-1.0831,-1.0902
2299.0,-6.1024,-7.5184,-0.9664,0.7167,-1.0831,-1.0902
2304.0,-6.1024,-7.5184,-0.9664,0.7167,-1.0831,-1.0902
2309.0,-6.1024,-7.5184,-0.9664,0.7167,-1.0831,-1.0902
2314.0,-6.1024,-7.5184,-0.9664,0.6067,-0.3378,-0.7493
2319.0,-7.8313,-6.8511,-0.8432,0.6067,-0.3378,-0.7493
2324.0,-7.8313,-6.8511,-0.8432,0.6067,-0.3378,-0.7493
2330.0,-7.8313,-6.8511,-0.8432,0.6067,-0.3378,-0.7493
2334.0,-7.8313,-6.8511,-0.8432,0.6067,-0.3378,-0.7493
2339.0,-7.8313,-6.8511,-0.8432,0.6067,-0.3378,-0.7493
2344.0,-8.5066,-7.5947,-0.0186,0.6623,0.0391,-0.7511
2349.0,-8.5066,-7.5947,-0.0186,0.6623,0.0391,-0.7511
2354.0,-8.5066,-7.5947,-0.0186,0.6623,0.0391,-0.7511
2359.0,-8.5066,-7.5947,-0.0186,0.6623,0.0391,-0.7511
2364.0,-8.5066,-7.5947,-0.0186,0.6623,0.0391,-0.7511
2368.0,-6.112,-8.1619,-0.5636,0.6623,0.0391,-0.7511
2374.0,-6.112,-8.1619,-0.5636,0.9445,0.9639,-0.855
2379.0,-6.112,-8.1619,-0.5636,0.9445,0.9639,-0.855
2384.0,-6.112,-8.1619,-0.5636,0.9445,0.9639,-0.855
2389.0,-6.112,-8.1619,-0.5636,0.9445,0.9639,-0.855
2394.0,-6.112,-8.1619,-0.5636,0.9445,0.9639,-0.855
2399.0,-4.8668,-8.6052,-3.0468,0.9445,0.9639,-0.855
2404.0,-4.8668,-8.6052,-3.0468,0.8767,1.7104,-1.0187
2409.0,-4.8668,-8.6052,-3.0468,0.8767,1.7104,-1.0187
2415.0,-4.8668,-8.6052,-3.0468,0.8767,1.7104,-1.0187
2420.0,-4.8668,-8.6052,-3.0468,0.8767,1.7104,-1.0187
2425.0,-4.2921,-8.2811,-2.4118,0.8767,1.7104,-1.0187
2429.0,-4.2921,-8.2811,-2.4118,0.8767,1.7104,-1.0187
2434.0,-4.2921,-8.2811,-2.4118,1.0203,2.0116,-1.1354
2439.0,-4.2921,-8.2811,-2.4118,1.0203,2.0116,-1.1354
2444.0,-4.2921,-8.2811,-2.4118,1.0203,2.0116,-1.1354
2449.0,-4.8189,-5.7118,-3.1511,1.0203,2.0116,-1.1354
2456.0,-4.8189,-5.7118,-3.1511,1.0203,2.0116,-1.1354
2459.0,-4.8189,-5.7118,-3.1511,1.0203,2.0116,-1.1354
2465.0,-4.8189,-5.7118,-3.1511,0.9231,1.4496,-0.8489
2469.0,-4.8189,-5.7118,-3.1511,0.9231,1.4496,-0.8489
2474.0,-4.8189,-5.7118,-3.1511,0.9231,1.4496,-0.8489
2479.0,-5.0488,-5.1493,-4.2695,0.9231,1.4496,-0.8489
2484.0,-5.0488,-5.1493,-4.2695,0.9231,1.4496,-0.8489
2489.0,-5.0488,-5.1493,-4.2695,0.9231,1.4496,-0.8489
2494.0,-5.0488,-5.1493,-4.2695,0.9231,1.4496,-0.8489
2499.0,-5.0488,-5.1493,-4.2695,0.8413,1.1783,-0.7707
2504.0,-3.8707,-6.3696,-5.4116,0.8413,1.1783,-0.7707
2509.0,-3.8707,-6.3696,-5.4116,0.8413,1.1783,-0.7707
2514.0,-3.8707,-6.3696,-5.4116,0.8413,1.1783,-0.7707
2519.0,-3.8707,-6.3696,-5.4116,0.8413,1.1783,-0.7707
2524.0,-3.8707,-6.3696,-5.4116,0.8413,1.1783,-0.7707
2529.0,-4.2155,-6.9226,-5.7765,0.677,1.0598,-1.0584
2534.0,-4.2155,-6.9226,-5.7765,0.677,1.0598,-1.0584
2539.0,-4.2155,-6.9226,-5.7765,0.677,1.0598,-1.0584
2544.0,-4.2155,-6.9226,-5.7765,0.677,1.0598,-1.0584
2549.0,-4.2155,-6.9226,-5.7765,0.677,1.0598,-1.0584
2554.0,-4.2155,-6.9226,-5.7765,0.677,1.0598,-1.0584
2559.0,-4.1293,-6.1408,-5.7481,0.6263,1.0128,-1.2001
2564.0,-4.1293,-6.1408,-5.7481,0.6263,1.0128,-1.2001
2570.0,-4.1293,-6.1408,-5.7481,0.6263,1.0128,-1.2001
2574.0,-4.1293,-6.1408,-5.7481,0.6263,1.0128,-1.2001
2579.0,-4.1293,-6.1408,-5.7481,0.6263,1.0128,-1.2001
2584.0,-5.681,-5.7785,-5.9045,0.6263,1.0128,-1.2001
2589.0,-5.681,-5.7785,-5.9045,0.7136,0.9627,-1.1714
2594.0,-5.681,-5.7785,-5.9045,0.7136,0.9627,-1.1714
2599.0,-5.681,-5.7785,-5.9045,0.7136,0.9627,-1.1714
2604.0,-5.681,-5.7785,-5.9045,0.7136,0.9627,-1.1714
2609.0,-5.681,-5.7785,-5.9045,0.7136,0.9627,-1.1714
2614.0,-5.0775,-5.4306,-5.3168,0.7136,0.9627,-1.1714
2619.0,-5.0775,-5.4306,-5.3168,0.5878,1.3121,-0.888
2624.0,-5.0775,-5.4306,-5.3168,0.5878,1.3121,-0.888
2629.0,-5.0775,-5.4306,-5.3168,0.5878,1.3121,-0.888
2634.0,-5.0775,-5.4306,-5.3168,0.5878,1.3121,-0.888
2640.0,-4.1484,-5.3829,-7.0371,0.5878,1.3121,-0.888
2644.0,-4.1484,-5.3829,-7.0371,0.5878,1.3121,-0.888
2649.0,-4.1484,-5.3829,-7.0371,0.3563,1.3928,-1.0505
2654.0,-4.1484,-5.3829,-7.0371,0.3563,1.3928,-1.0505
2659.0,-4.1484,-5.3829,-7.0371,0.3563,1.3928,-1.0505
2665.0,-3.6695,-4.2055,-8.0844,0.3563,1.3928,-1.0505
2669.0,-3.6695,-4.2055,-8.0844,0.3563,1.3928,-1.0505
2674.0,-3.6695,-4.2055,-8.0844,0.3563,1.3928,-1.0505
2679.0,-3.6695,-4.2055,-8.0844,0.3563,1.3928,-1.0505
2684.0,-3.6695,-4.2055,-8.0844,0.1455,1.0556,-1.1665
2689.0,-3.6695,-4.2055,-8.0844,0.1455,1.0556,-1.1665
2695.0,-4.2011,-4.7394,-6.3926,0.1455,1.0556,-1.1665
2699.0,-4.2011,-4.7394,-6.3926,0.1455,1.0556,-1.1665
2704.0,-4.2011,-4.7394,-6.3926,0.1455,1.0556,-1.1665
2709.0,-4.2011,-4.7394,-6.3926,0.1455,1.0556,-1.1665
2714.0,-4.2011,-4.7394,-6.3926,0.209,1.2901,-0.9967
2719.0,-5.4559,-4.3819,-7.7764,0.209,1.2901,-0.9967
2724.0,-5.4559,-4.3819,-7.7764,0.209,1.2901,-0.9967
2729.0,-5.4559,-4.3819,-7.7764,0.209,1.2901,-0.9967
2734.0,-5.4559,-4.3819,-7.7764,0.209,1.2901,-0.9967
2739.0,-5.4559,-4.3819,-7.7764,0.209,1.2901,-0.9967
2744.0,-4.8285,-3.6335,-7.3783,0.1644,1.1557,-0.9442
2750.0,-4.8285,-3.6335,-7.3783,0.1644,1.1557,-0.9442
2755.0,-4.8285,-3.6335,-7.3783,0.1644,1.1557,-0.9442
2759.0,-4.8285,-3.6335,-7.3783,0.1644,1.1557,-0.9442
2764.0,-4.8285,-3.6335,-7.3783,0.1644,1.1557,-0.9442
2769.0,-4.8285,-3.6335,-7.3783,0.1644,1.1557,-0.9442
2774.0,-4.2825,-4.0196,-7.7385,0.0801,1.325,-0.9564
2779.0,-4.2825,-4.0196,-7.7385,0.0801,1.325,-0.9564
2784.0,-4.2825,-4.0196,-7.7385,0.0801,1.325,-0.9564
2789.0,-4.2825,-4.0196,-7.7385,0.0801,1.325,-0.9564
2793.0,-4.2825,-4.0196,-7.7385,0.0801,1.325,-0.9564
2799.0,-3.7796,-1.927,-8.3356,0.0801,1.325,-0.9564
2804.0,-3.7796,-1.927,-8.3356,0.0801,1.325,-0.9564
2809.0,-3.7796,-1.927,-8.3356,0.1736,1.0262,-0.8031
2814.0,-3.7796,-1.927,-8.3356,0.1736,1.0262,-0.8031
2819.0,-3.7796,-1.927,-8.3356,0.1736,1.0262,-0.8031
2824.0,-3.7796,-1.927,-8.3356,0.1736,1.0262,-0.8031
2829.0,-3.5929,-1.9317,-8.3072,0.1736,1.0262,-0.8031
2834.0,-3.5929,-1.9317,-8.3072,0.1308,1.0489,-0.6406
2839.0,-3.5929,-1.9317,-8.3072,0.1308,1.0489,-0.6406
2844.0,-3.5929,-1.9317,-8.3072,0.1308,1.0489,-0.6406
2849.0,-3.5929,-1.9317,-8.3072,0.1308,1.0489,-0.6406
2854.0,-2.8122,-2.8374,-8.5014,0.1308,1.0489,-0.6406
2859.0,-2.8122,-2.8374,-8.5014,0.1308,1.0489,-0.6406
2864.0,-2.8122,-2.8374,-8.5014,0.1308,1.0489,-0.6406
2869.0,-2.8122,-2.8374,-8.5014,-0.0157,1.0049,-0.6901
2874.0,-2.8122,-2.8374,-8.5014,-0.0157,1.0049,-0.6901
2879.0,-1.7251,-2.6134,-9.3024,-0.0157,1.0049,-0.6901
2884.0,-1.7251,-2.6134,-9.3024,-0.0157,1.0049,-0.6901
2889.0,-1.7251,-2.6134,-9.3024,-0.0157,1.0049,-0.6901
2894.0,-1.7251,-2.6134,-9.3024,-0.0157,1.0049,-0.6901
2899.0,-1.7251,-2.6134,-9.3024,-0.1227,0.8167,-0.7505
2904.0,-1.7251,-2.6134,-9.3024,-0.1227,0.8167,-0.7505
2909.0,-1.955,-2.4322,-9.7004,-0.1227,0.8167,-0.7505
2914.0,-1.955,-2.4322,-9.7004,-0.1227,0.8167,-0.7505
2919.0,-1.955,-2.4322,-9.7004,-0.1227,0.8167,-0.7505
2924.0,-1.955,-2.4322,-9.7004,-0.1227,0.8167,-0.7505
2929.0,-1.955,-2.4322,-9.7004,-0.2112,0.7324,-0.698
2934.0,-2.1657,-2.6324,-9.6009,-0.2112,0.7324,-0.698
2939.0,-2.1657,-2.6324,-9.6009,-0.2112,0.7324,-0.698
2944.0,-2.1657,-2.6324,-9.6009,-0.2112,0.7324,-0.698
2949.0,-2.1657,-2.6324,-9.6009,-0.2112,0.7324,-0.698
2954.0,-2.1657,-2.6324,-9.6009,-0.2112,0.7324,-0.698
2959.0,-1.7299,-2.2225,-9.5109,-0.2387,0.5754,-0.6681
2964.0,-1.7299,-2.2225,-9.5109,-0.2387,0.5754,-0.6681
2970.0,-1.7299,-2.2225,-9.5109,-0.2387,0.5754,-0.6681
2974.0,-1.7299,-2.2225,-9.5109,-0.2387,0.5754,-0.6681
2983.0,-1.7299,-2.2225,-9.5109,-0.2387,0.5754,-0.6681
2987.0,-1.6772,-2.0414,-10.4824,-0.2387,0.5754,-0.6681
2991.0,-1.6772,-2.0414,-10.4824,-0.3389,0.3445,-0.6968
2995.0,-1.6772,-2.0414,-10.4824,-0.3389,0.3445,-0.6968
2999.0,-1.6772,-2.0414,-10.4824,-0.3389,0.3445,-0.6968
3004.0,-1.6772,-2.0414,-10.4824,-0.3389,0.3445,-0.6968
3009.0,-1.6772,-2.0414,-10.4824,-0.3389,0.3445,-0.6968
3014.0,-2.932,-2.1558,-11.2312,-0.3389,0.3445,-0.6968
3019.0,-2.932,-2.1558,-11.2312,-0.3389,0.3445,-0.6968
3024.0,-2.932,-2.1558,-11.2312,-0.2821,0.1753,-0.4836
3029.0,-2.932,-2.1558,-11.2312,-0.2821,0.1753,-0.4836
3034.0,-2.932,-2.1558,-11.2312,-0.2821,0.1753,-0.4836
3039.0,-3.2433,-3.009,-11.8378,-0.2821,0.1753,-0.4836
3044.0,-3.2433,-3.009,-11.8378,-0.2821,0.1753,-0.4836
3049.0,-3.2433,-3.009,-11.8378,-0.2821,0.1753,-0.4836
3054.0,-3.2433,-3.009,-11.8378,-0.1013,0.0598,-0.125
3059.0,-3.2433,-3.009,-11.8378,-0.1013,0.0598,-0.125
3064.0,-3.2433,-3.009,-11.8378,-0.1013,0.0598,-0.125
3069.0,-2.8936,-3.4857,-12.4254,-0.1013,0.0598,-0.125
3074.0,-2.8936,-3.4857,-12.4254,-0.1013,0.0598,-0.125
3079.0,-2.8936,-3.4857,-12.4254,-0.1013,0.0598,-0.125
3083.0,-2.8936,-3.4857,-12.4254,0.1369,-0.2663,0.2384
3089.0,-2.8936,-3.4857,-12.4254,0.1369,-0.2663,0.2384
3094.0,-3.1954,-3.4857,-11.7003,0.1369,-0.2663,0.2384
3099.0,-3.1954,-3.4857,-11.7003,0.1369,-0.2663,0.2384
3104.0,-3.1954,-3.4857,-11.7003,0.1369,-0.2663,0.2384
3109.0,-3.1954,-3.4857,-11.7003,0.1369,-0.2663,0.2384
3114.0,-3.1954,-3.4857,-11.7003,0.1993,-0.4343,0.5854
3119.0,-3.0229,-3.0567,-11.4871,0.1993,-0.4343,0.5854
3124.0,-3.0229,-3.0567,-11.4871,0.1993,-0.4343,0.5854
3129.0,-3.0229,-3.0567,-11.4871,0.1993,-0.4343,0.5854
3134.0,-3.0229,-3.0567,-11.4871,0.1993,-0.4343,0.5854
3139.0,-3.0229,-3.0567,-11.4871,0.1993,-0.4343,0.5854
3144.0,-3.0229,-3.0567,-11.4871,0.115,-0.4129,0.8585
3149.0,-2.3285,-3.4046,-11.0937,0.115,-0.4129,0.8585
3154.0,-2.3285,-3.4046,-11.0937,0.115,-0.4129,0.8585
3159.0,-2.3285,-3.4046,-11.0937,0.115,-0.4129,0.8585
3164.0,-2.3285,-3.4046,-11.0937,0.115,-0.4129,0.8585
3169.0,-2.3285,-3.4046,-11.0937,0.115,-0.4129,0.8585
3174.0,-1.749,-3.8956,-10.5298,0.0246,-0.5516,1.0338
3179.0,-1.749,-3.8956,-10.5298,0.0246,-0.5516,1.0338
3184.0,-1.749,-3.8956,-10.5298,0.0246,-0.5516,1.0338
3189.0,-1.749,-3.8956,-10.5298,0.0246,-0.5516,1.0338
3194.0,-1.749,-3.8956,-10.5298,0.0246,-0.5516,1.0338
3199.0,-1.749,-3.8956,-10.5298,0.0246,-0.5516,1.0338
3204.0,-2.2136,-3.5906,-9.8805,-0.0463,-0.8607,1.1193
3209.0,-2.2136,-3.5906,-9.8805,-0.0463,-0.8607,1.1193
3214.0,-2.2136,-3.5906,-9.8805,-0.0463,-0.8607,1.1193
3219.0,-2.2136,-3.5906,-9.8805,-0.0463,-0.8607,1.1193
3224.0,-2.2136,-3.5906,-9.8805,-0.0463,-0.8607,1.1193
3229.0,-3.4731,-3.2283,-9.326,-0.0463,-0.8607,1.1193
3235.0,-3.4731,-3.2283,-9.326,-0.0609,-0.92,1.2452
3239.0,-3.4731,-3.2283,-9.326,-0.0609,-0.92,1.2452
3244.0,-3.4731,-3.2283,-9.326,-0.0609,-0.92,1.2452
3250.0,-3.4731,-3.2283,-9.326,-0.0609,-0.92,1.2452
3254.0,-3.8802,-3.2426,-8.8237,-0.0609,-0.92,1.2452
3259.0,-3.8802,-3.2426,-8.8237,-0.0609,-0.92,1.2452
3265.0,-3.8802,-3.2426,-8.8237,-0.0609,-0.92,1.2452
3269.0,-3.8802,-3.2426,-8.8237,0.0172,-0.9633,1.4052
3274.0,-3.8802,-3.2426,-8.8237,0.0172,-0.9633,1.4052
3279.0,-3.8802,-3.2426,-8.8237,0.0172,-0.9633,1.4052
3284.0,-3.4492,-3.8337,-7.6295,0.0172,-0.9633,1.4052
3289.0,-3.4492,-3.8337,-7.6295,0.0172,-0.9633,1.4052
3294.0,-3.4492,-3.8337,-7.6295,0.0172,-0.9633,1.4052
3299.0,-3.4492,-3.8337,-7.6295,-0.0475,-1.1606,1.3643
3304.0,-3.4492,-3.8337,-7.6295,-0.0475,-1.1606,1.3643
3309.0,-2.9511,-4.4629,-8.0892,-0.0475,-1.1606,1.3643
3313.0,-2.9511,-4.4629,-8.0892,-0.0475,-1.1606,1.3643
3319.0,-2.9511,-4.4629,-8.0892,-0.0475,-1.1606,1.3643
3324.0,-2.9511,-4.4629,-8.0892,-0.0475,-1.1606,1.3643
3329.0,-2.9511,-4.4629,-8.0892,-0.174,-1.4196,1.4406
3334.0,-3.339,-4.5344,-6.6722,-0.174,-1.4196,1.4406
3339.0,-3.339,-4.5344,-6.6722,-0.174,-1.4196,1.4406
3344.0,-3.339,-4.5344,-6.6722,-0.174,-1.4196,1.4406
3350.0,-3.339,-4.5344,-6.6722,-0.174,-1.4196,1.4406
3354.0,-3.339,-4.5344,-6.6722,-0.174,-1.4196,1.4406
3359.0,-3.339,-4.5344,-6.6722,-0.3303,-1.4087,1.4107
3364.0,-3.5162,-4.8871,-6.4495,-0.3303,-1.4087,1.4107
3369.0,-3.5162,-4.8871,-6.4495,-0.3303,-1.4087,1.4107
3374.0,-3.5162,-4.8871,-6.4495,-0.3303,-1.4087,1.4107
3379.0,-3.5162,-4.8871,-6.4495,-0.3303,-1.4087,1.4107
3384.0,-3.5162,-4.8871,-6.4495,-0.3303,-1.4087,1.4107
3389.0,-3.6791,-5.4449,-6.1556,-0.59,-1.3182,1.2311
3394.0,-3.6791,-5.4449,-6.1556,-0.59,-1.3182,1.2311
3399.0,-3.6791,-5.4449,-6.1556,-0.59,-1.3182,1.2311
3404.0,-3.6791,-5.4449,-6.1556,-0.59,-1.3182,1.2311
3409.0,-3.6791,-5.4449,-6.1556,-0.59,-1.3182,1.2311
3415.0,-3.7749,-5.9215,-5.6675,-0.59,-1.3182,1.2311
3419.0,-3.7749,-5.9215,-5.6675,-0.8319,-1.0617,1.2684
3425.0,-3.7749,-5.9215,-5.6675,-0.8319,-1.0617,1.2684
3429.0,-3.7749,-5.9215,-5.6675,-0.8319,-1.0617,1.2684
3434.0,-3.7749,-5.9215,-5.6675,-0.8319,-1.0617,1.2684
3439.0,-3.7749,-5.9215,-5.6675,-0.8319,-1.0617,1.2684
3444.0,-3.6551,-6.2504,-5.1225,-0.8319,-1.0617,1.2684
3449.0,-3.6551,-6.2504,-5.1225,-0.9125,-1.0544,1.3704
3454.0,-3.6551,-6.2504,-5.1225,-0.9125,-1.0544,1.3704
3459.0,-3.6551,-6.2504,-5.1225,-0.9125,-1.0544,1.3704
3464.0,-3.6551,-6.2504,-5.1225,-0.9125,-1.0544,1.3704
3469.0,-3.636,-6.465,-4.4211,-0.9125,-1.0544,1.3704
3474.0,-3.636,-6.465,-4.4211,-0.9125,-1.0544,1.3704
3479.0,-3.636,-6.465,-4.4211,-0.8875,-1.1545,1.4077
3484.0,-3.636,-6.465,-4.4211,-0.8875,-1.1545,1.4077
3490.0,-3.636,-6.465,-4.4211,-0.8875,-1.1545,1.4077
3494.0,-3.8707,-6.3458,-3.6629,-0.8875,-1.1545,1.4077
3499.0,-3.8707,-6.3458,-3.6629,-0.8875,-1.1545,1.4077
3504.0,-3.8707,-6.3458,-3.6629,-0.8875,-1.1545,1.4077
3509.0,-3.8707,-6.3458,-3.6629,-0.8777,-1.3671,1.5072
3514.0,-3.8707,-6.3458,-3.6629,-0.8777,-1.3671,1.5072
3518.0,-3.8707,-6.3458,-3.6629,-0.8777,-1.3671,1.5072
3524.0,-4.0862,-6.403,-2.8288,-0.8777,-1.3671,1.5072
3529.0,-4.0862,-6.403,-2.8288,-0.8777,-1.3671,1.5072
3534.0,-4.0862,-6.403,-2.8288,-0.8777,-1.3671,1.5072
3539.0,-4.0862,-6.403,-2.8288,-0.9699,-1.2523,1.6312
3544.0,-4.0862,-6.403,-2.8288,-0.9699,-1.2523,1.6312
3549.0,-4.2011,-6.3553,-2.2459,-0.9699,-1.2523,1.6312
3554.0,-4.2011,-6.3553,-2.2459,-0.9699,-1.2523,1.6312
3559.0,-4.2011,-6.3553,-2.2459,-0.9699,-1.2523,1.6312
3565.0,-4.2011,-6.3553,-2.2459,-0.9699,-1.2523,1.6312
3570.0,-4.2011,-6.3553,-2.2459,-0.9699,-1.2523,1.6312
3574.0,-4.0239,-6.77,-2.6487,-1.1813,-0.9316,1.7406
3580.0,-4.0239,-6.77,-2.6487,-1.1813,-0.9316,1.7406
3584.0,-4.0239,-6.77,-2.6487,-1.1813,-0.9316,1.7406
3589.0,-4.0239,-6.77,-2.6487,-1.1813,-0.9316,1.7406
3594.0,-4.0239,-6.77,-2.6487,-1.1813,-0.9316,1.7406
3599.0,-4.0239,-6.77,-2.6487,-1.1813,-0.9316,1.7406
3604.0,-3.4205,-7.056,-2.3407,-1.2631,-0.6872,1.5714
3609.0,-3.4205,-7.056,-2.3407,-1.2631,-0.6872,1.5714
3614.0,-3.4205,-7.056,-2.3407,-1.2631,-0.6872,1.5714
3620.0,-3.4205,-7.056,-2.3407,-1.2631,-0.6872,1.5714
3624.0,-3.4205,-7.056,-2.3407,-1.2631,-0.6872,1.5714
3630.0,-3.4205,-7.056,-2.3407,-1.2631,-0.6872,1.5714
3634.0,-3.2864,-7.4946,-3.7482,-1.0964,-0.7074,1.2287
3639.0,-3.2864,-7.4946,-3.7482,-1.0964,-0.7074,1.2287
3644.0,-3.2864,-7.4946,-3.7482,-1.0964,-0.7074,1.2287
3649.0,-3.2864,-7.4946,-3.7482,-1.0964,-0.7074,1.2287
3654.0,-3.2864,-7.4946,-3.7482,-1.0964,-0.7074,1.2287
3659.0,-2.8745,-7.404,-3.4212,-1.0964,-0.7074,1.2287
3664.0,-2.8745,-7.404,-3.4212,-0.7714,-0.8955,1.0002
3669.0,-2.8745,-7.404,-3.4212,-0.7714,-0.8955,1.0002
3674.0,-2.8745,-7.404,-3.4212,-0.7714,-0.8955,1.0002
3679.0,-2.8745,-7.404,-3.4212,-0.7714,-0.8955,1.0002
3684.0,-2.1321,-6.9273,-2.0042,-0.7714,-0.8955,1.0002
3689.0,-2.1321,-6.9273,-2.0042,-0.7714,-0.8955,1.0002
3694.0,-2.1321,-6.9273,-2.0042,-0.7714,-0.8955,1.0002
3699.0,-2.1321,-6.9273,-2.0042,-0.673,-0.9969,1.1175
3704.0,-2.1321,-6.9273,-2.0042,-0.673,-0.9969,1.1175
3709.0,-2.1321,-6.9273,-2.0042,-0.673,-0.9969,1.1175
3714.0,-2.204,-7.4755,-2.4023,-0.673,-0.9969,1.1175
3719.0,-2.204,-7.4755,-2.4023,-0.673,-0.9969,1.1175
3725.0,-2.204,-7.4755,-2.4023,-0.673,-0.9969,1.1175
3730.0,-2.204,-7.4755,-2.4023,-0.6437,-0.3696,0.4932
3734.0,-2.204,-7.4755,-2.4023,-0.6437,-0.3696,0.4932
3740.0,-3.3247,-9.6921,-4.2221,-0.6437,-0.3696,0.4932
3744.0,-3.3247,-9.6921,-4.2221,-0.6437,-0.3696,0.4932
3749.0,-3.3247,-9.6921,-4.2221,-0.6437,-0.3696,0.4932
3754.0,-3.3247,-9.6921,-4.2221,-0.6437,-0.3696,0.4932
3761.0,-3.3247,-9.6921,-4.2221,-0.5405,-0.179,-0.0719
3764.0,-3.3247,-9.6921,-4.2221,-0.5405,-0.179,-0.0719
3769.0,-4.4454,-11.9563,-4.2363,-0.5405,-0.179,-0.0719
3775.0,-4.4454,-11.9563,-4.2363,-0.5405,-0.179,-0.0719
3780.0,-4.4454,-11.9563,-4.2363,-0.5405,-0.179,-0.0719
3784.0,-4.4454,-11.9563,-4.2363,-0.5405,-0.179,-0.0719
3789.0,-4.4454,-11.9563,-4.2363,-0.5405,-0.179,-0.0719
3794.0,-4.4454,-11.9563,-4.2363,0.1382,-0.4545,-0.0206
3799.0,-6.0497,-11.8943,-4.2742,0.1382,-0.4545,-0.0206
3804.0,-6.0497,-11.8943,-4.2742,0.1382,-0.4545,-0.0206
3809.0,-6.0497,-11.8943,-4.2742,0.1382,-0.4545,-0.0206
3814.0,-6.0497,-11.8943,-4.2742,0.1382,-0.4545,-0.0206
3819.0,-6.0497,-11.8943,-4.2742,0.1382,-0.4545,-0.0206
3824.0,-5.0967,-9.4204,-3.734,0.4558,0.0116,-0.9375
3829.0,-5.0967,-9.4204,-3.734,0.4558,0.0116,-0.9375
3834.0,-5.0967,-9.4204,-3.734,0.4558,0.0116,-0.9375
3839.0,-5.0967,-9.4204,-3.734,0.4558,0.0116,-0.9375
3844.0,-5.0967,-9.4204,-3.734,0.4558,0.0116,-0.9375
3849.0,-4.7519,-9.4061,-2.0658,0.4558,0.0116,-0.9375
3854.0,-4.7519,-9.4061,-2.0658,0.5994,0.3977,-1.125
3859.0,-4.7519,-9.4061,-2.0658,0.5994,0.3977,-1.125
3864.0,-4.7519,-9.4061,-2.0658,0.5994,0.3977,-1.125
3869.0,-4.7519,-9.4061,-2.0658,0.5994,0.3977,-1.125
3874.0,-4.7519,-9.4061,-2.0658,0.5994,0.3977,-1.125
3879.0,-2.8745,-8.2954,-3.0752,0.5994,0.3977,-1.125
3883.0,-2.8745,-8.2954,-3.0752,0.6501,0.4093,-0.957
3889.0,-2.8745,-8.2954,-3.0752,0.6501,0.4093,-0.957
3894.0,-2.8745,-8.2954,-3.0752,0.6501,0.4093,-0.957
3899.0,-2.8745,-8.2954,-3.0752,0.6501,0.4093,-0.957
3904.0,-2.908,-8.0428,-2.0706,0.6501,0.4093,-0.957
3909.0,-2.908,-8.0428,-2.0706,0.6501,0.4093,-0.957
3914.0,-2.908,-8.0428,-2.0706,0.8102,1.0403,-1.4017
3919.0,-2.908,-8.0428,-2.0706,0.8102,1.0403,-1.4017
3924.0,-2.908,-8.0428,-2.0706,0.8102,1.0403,-1.4017
3929.0,-2.908,-8.0428,-2.0706,0.8102,1.0403,-1.4017
3935.0,-2.0412,-7.6662,-3.4307,0.8102,1.0403,-1.4017
3939.0,-2.0412,-7.6662,-3.4307,0.8102,1.0403,-1.4017
3944.0,-2.0412,-7.6662,-3.4307,0.8804,0.6005,-1.3968
3949.0,-2.0412,-7.6662,-3.4307,0.8804,0.6005,-1.3968
3954.0,-2.0412,-7.6662,-3.4307,0.8804,0.6005,-1.3968
3959.0,-2.9894,-6.7891,-4.7386,0.8804,0.6005,-1.3968
3964.0,-2.9894,-6.7891,-4.7386,0.8804,0.6005,-1.3968
3969.0,-2.9894,-6.7891,-4.7386,0.8804,0.6005,-1.3968
3975.0,-2.9894,-6.7891,-4.7386,1.1803,1.2419,-2.0248
3981.0,-2.9894,-6.7891,-4.7386,1.1803,1.2419,-2.0248
3984.0,-2.9894,-6.7891,-4.7386,1.1803,1.2419,-2.0248
3989.0,-3.5354,-5.4067,-3.6155,1.1803,1.2419,-2.0248
3994.0,-3.5354,-5.4067,-3.6155,1.1803,1.2419,-2.0248
3999.0,-3.5354,-5.4067,-3.6155,1.1803,1.2419,-2.0248
4004.0,-3.5354,-5.4067,-3.6155,1.1803,1.2419,-2.0248
4009.0,-3.5354,-5.4067,-3.6155,1.0954,0.3342,-1.5416
4014.0,-3.9233,-3.9719,-3.8051,1.0954,0.3342,-1.5416
4019.0,-3.9233,-3.9719,-3.8051,1.0954,0.3342,-1.5416
4024.0,-3.9233,-3.9719,-3.8051,1.0954,0.3342,-1.5416
4029.0,-3.9233,-3.9719,-3.8051,1.0954,0.3342,-1.5416
4034.0,-3.9233,-3.9719,-3.8051,1.0954,0.3342,-1.5416
4039.0,-5.3601,-5.2971,-0.8289,1.0802,-0.044,-1.1012
4044.0,-5.3601,-5.2971,-0.8289,1.0802,-0.044,-1.1012
4049.0,-5.3601,-5.2971,-0.8289,1.0802,-0.044,-1.1012
4054.0,-5.3601,-5.2971,-0.8289,1.0802,-0.044,-1.1012
4059.0,-5.3601,-5.2971,-0.8289,1.0802,-0.044,-1.1012
4063.0,-5.3601,-5.2971,-0.8289,1.0802,-0.044,-1.1012
4069.0,-6.8208,-8.7053,-2.7293,1.3703,1.0257,-1.1922
4074.0,-6.8208,-8.7053,-2.7293,1.3703,1.0257,-1.1922
4079.0,-6.8208,-8.7053,-2.7293,1.3703,1.0257,-1.1922
4084.0,-6.8208,-8.7053,-2.7293,1.3703,1.0257,-1.1922
4089.0,-6.8208,-8.7053,-2.7293,1.3703,1.0257,-1.1922
4094.0,-5.3936,-8.9103,-5.8855,1.3703,1.0257,-1.1922
4098.0,-5.3936,-8.9103,-5.8855,1.2274,1.3024,-1.2716
4104.0,-5.3936,-8.9103,-5.8855,1.2274,1.3024,-1.2716
4109.0,-5.3936,-8.9103,-5.8855,1.2274,1.3024,-1.2716
4113.0,-5.3936,-8.9103,-5.8855,1.2274,1.3024,-1.2716
4119.0,-1.9406,-6.3934,-5.7481,1.2274,1.3024,-1.2716
4124.0,-1.9406,-6.3934,-5.7481,1.2274,1.3024,-1.2716
4129.0,-1.9406,-6.3934,-5.7481,0.5603,0.7679,-1.235
4134.0,-1.9406,-6.3934,-5.7481,0.5603,0.7679,-1.235
4139.0,-1.9406,-6.3934,-5.7481,0.5603,0.7679,-1.235
4144.0,-2.2615,-4.8824,-5.5443,0.5603,0.7679,-1.235
4150.0,-2.2615,-4.8824,-5.5443,0.5603,0.7679,-1.235
4154.0,-2.2615,-4.8824,-5.5443,0.5603,0.7679,-1.235
4159.0,-2.2615,-4.8824,-5.5443,0.7509,0.6744,-1.2307
4164.0,-2.2615,-4.8824,-5.5443,0.7509,0.6744,-1.2307
4169.0,-2.2615,-4.8824,-5.5443,0.7509,0.6744,-1.2307
4174.0,-4.34,-5.421,-6.5821,0.7509,0.6744,-1.2307
4179.0,-4.34,-5.421,-6.5821,0.7509,0.6744,-1.2307
4184.0,-4.34,-5.421,-6.5821,0.7509,0.6744,-1.2307
4189.0,-4.34,-5.421,-6.5821,0.7509,0.6744,-1.2307
4194.0,-4.34,-5.421,-6.5821,0.8609,0.2444,-1.3364
4199.0,-5.0679,-5.1017,-5.3452,0.8609,0.2444,-1.3364
4204.0,-5.0679,-5.1017,-5.3452,0.8609,0.2444,-1.3364
4209.0,-5.0679,-5.1017,-5.3452,0.8609,0.2444,-1.3364
4214.0,-5.0679,-5.1017,-5.3452,0.8609,0.2444,-1.3364
4219.0,-5.0679,-5.1017,-5.3452,0.8609,0.2444,-1.3364
4224.0,-5.0679,-5.1017,-5.3452,0.3416,0.6567,-1.3229
4229.0,-4.2921,-4.706,-8.2598,0.3416,0.6567,-1.3229
4234.0,-4.2921,-4.706,-8.2598,0.3416,0.6567,-1.3229
4239.0,-4.2921,-4.706,-8.2598,0.3416,0.6567,-1.3229
4244.0,-4.2921,-4.706,-8.2598,0.3416,0.6567,-1.3229
4249.0,-4.2921,-4.706,-8.2598,0.3416,0.6567,-1.3229
4254.0,-4.3831,-5.0444,-6.2836,0.2366,0.4496,-1.2319
4259.0,-4.3831,-5.0444,-6.2836,0.2366,0.4496,-1.2319
4264.0,-4.3831,-5.0444,-6.2836,0.2366,0.4496,-1.2319
4269.0,-4.3831,-5.0444,-6.2836,0.2366,0.4496,-1.2319
4274.0,-4.3831,-5.0444,-6.2836,0.2366,0.4496,-1.2319
4279.0,-5.7959,-4.0625,-7.9375,0.2366,0.4496,-1.2319
4284.0,-5.7959,-4.0625,-7.9375,0.3844,0.3335,-1.3675
4289.0,-5.7959,-4.0625,-7.9375,0.3844,0.3335,-1.3675
4294.0,-5.7959,-4.0625,-7.9375,0.3844,0.3335,-1.3675
4299.0,-5.7959,-4.0625,-7.9375,0.3844,0.3335,-1.3675
4304.0,-5.7959,-4.0625,-7.9375,0.3844,0.3335,-1.3675
4309.0,-4.5747,-3.9195,-6.7575,0.3844,0.3335,-1.3675
4315.0,-4.5747,-3.9195,-6.7575,0.2598,0.7874,-1.1482
4319.0,-4.5747,-3.9195,-6.7575,0.2598,0.7874,-1.1482
4324.0,-4.5747,-3.9195,-6.7575,0.2598,0.7874,-1.1482
4330.0,-4.5747,-3.9195,-6.7575,0.2598,0.7874,-1.1482
4334.0,-4.589,-4.0768,-8.2266,0.2598,0.7874,-1.1482
4339.0,-4.589,-4.0768,-8.2266,0.2598,0.7874,-1.1482
4344.0,-4.589,-4.0768,-8.2266,0.2598,0.7874,-1.1482
4349.0,-4.589,-4.0768,-8.2266,0.2225,0.639,-1.1965
4354.0,-4.589,-4.0768,-8.2266,0.2225,0.639,-1.1965
4359.0,-4.589,-4.0768,-8.2266,0.2225,0.639,-1.1965
4365.0,-3.9233,-2.8612,-8.2692,0.2225,0.639,-1.1965
4369.0,-3.9233,-2.8612,-8.2692,0.2225,0.639,-1.1965
4374.0,-3.9233,-2.8612,-8.2692,0.2225,0.639,-1.1965
4380.0,-3.9233,-2.8612,-8.2692,0.1626,0.6542,-1.1714
4385.0,-3.9233,-2.8612,-8.2692,0.1626,0.6542,-1.1714
4389.0,-3.2385,-2.1987,-8.8522,0.1626,0.6542,-1.1714
4394.0,-3.2385,-2.1987,-8.8522,0.1626,0.6542,-1.1714
4399.0,-3.2385,-2.1987,-8.8522,0.1626,0.6542,-1.1714
4404.0,-3.2385,-2.1987,-8.8522,0.1626,0.6542,-1.1714
4410.0,-3.2385,-2.1987,-8.8522,-0.0041,0.5797,-1.2313
4415.0,-3.636,-2.1558,-9.3687,-0.0041,0.5797,-1.2313
4419.0,-3.636,-2.1558,-9.3687,-0.0041,0.5797,-1.2313
4424.0,-3.636,-2.1558,-9.3687,-0.0041,0.5797,-1.2313
4429.0,-3.636,-2.1558,-9.3687,-0.0041,0.5797,-1.2313
4435.0,-3.636,-2.1558,-9.3687,-0.0041,0.5797,-1.2313
4439.0,-3.636,-2.1558,-9.3687,-0.0805,0.4948,-1.1898
4444.0,-3.8467,-2.3321,-8.7431,-0.0805,0.4948,-1.1898
4449.0,-3.8467,-2.3321,-8.7431,-0.0805,0.4948,-1.1898
4454.0,-3.8467,-2.3321,-8.7431,-0.0805,0.4948,-1.1898
4459.0,-3.8467,-2.3321,-8.7431,-0.0805,0.4948,-1.1898
4464.0,-3.8467,-2.3321,-8.7431,-0.0805,0.4948,-1.1898
4469.0,-4.3783,-1.3835,-10.1317,-0.2546,0.4832,-1.0456
4475.0,-4.3783,-1.3835,-10.1317,-0.2546,0.4832,-1.0456
4479.0,-4.3783,-1.3835,-10.1317,-0.2546,0.4832,-1.0456
4484.0,-4.3783,-1.3835,-10.1317,-0.2546,0.4832,-1.0456
4489.0,-4.3783,-1.3835,-10.1317,-0.2546,0.4832,-1.0456
4494.0,-4.3783,-1.3835,-10.1317,-0.2546,0.4832,-1.0456
4499.0,-5.0632,-0.6685,-10.3307,-0.2589,0.259,-0.9185
4504.0,-5.0632,-0.6685,-10.3307,-0.2589,0.259,-0.9185
4509.0,-5.0632,-0.6685,-10.3307,-0.2589,0.259,-0.9185
4514.0,-5.0632,-0.6685,-10.3307,-0.2589,0.259,-0.9185
4520.0,-5.0632,-0.6685,-10.3307,-0.2589,0.259,-0.9185
4524.0,-6.5766,-1.4407,-10.7193,-0.2589,0.259,-0.9185
4529.0,-6.5766,-1.4407,-10.7193,-0.2589,0.259,-0.9185
4534.0,-6.5766,-1.4407,-10.7193,-0.0542,0.0568,-0.4824
4539.0,-6.5766,-1.4407,-10.7193,-0.0542,0.0568,-0.4824
4544.0,-6.5766,-1.4407,-10.7193,-0.0542,0.0568,-0.4824
4549.0,-6.5766,-1.4407,-10.7193,-0.0542,0.0568,-0.4824
4554.0,-6.3467,-1.7315,-10.6246,-0.0542,0.0568,-0.4824
4559.0,-6.3467,-1.7315,-10.6246,-0.0542,0.0568,-0.4824
4564.0,-6.3467,-1.7315,-10.6246,0.2115,-0.1038,0.0289
4569.0,-6.3467,-1.7315,-10.6246,0.2115,-0.1038,0.0289
4574.0,-6.3467,-1.7315,-10.6246,0.2115,-0.1038,0.0289
4579.0,-5.6714,-2.0509,-11.0132,0.2115,-0.1038,0.0289
4584.0,-5.6714,-2.0509,-11.0132,0.2115,-0.1038,0.0289
4589.0,-5.6714,-2.0509,-11.0132,0.2115,-0.1038,0.0289
4594.0,-5.6714,-2.0509,-11.0132,0.3276,-0.369,0.4529
4599.0,-5.6714,-2.0509,-11.0132,0.3276,-0.369,0.4529
4604.0,-5.226,-2.6277,-11.397,0.3276,-0.369,0.4529
4609.0,-5.226,-2.6277,-11.397,0.3276,-0.369,0.4529
4614.0,-5.226,-2.6277,-11.397,0.3276,-0.369,0.4529
4619.0,-5.226,-2.6277,-11.397,0.3276,-0.369,0.4529
4624.0,-5.226,-2.6277,-11.397,0.3276,-0.369,0.4529
4629.0,-5.226,-2.6277,-11.397,0.2928,-0.584,0.842
4634.0,-4.7567,-3.0138,-11.2596,0.2928,-0.584,0.842
4639.0,-4.7567,-3.0138,-11.2596,0.2928,-0.584,0.842
4644.0,-4.7567,-3.0138,-11.2596,0.2928,-0.584,0.842
4649.0,-4.7567,-3.0138,-11.2596,0.2928,-0.584,0.842
4654.0,-4.7567,-3.0138,-11.2596,0.2928,-0.584,0.842
4659.0,-4.5651,-2.7278,-11.0226,0.0161,-0.6304,1.0925
4664.0,-4.5651,-2.7278,-11.0226,0.0161,-0.6304,1.0925
4669.0,-4.5651,-2.7278,-11.0226,0.0161,-0.6304,1.0925
4674.0,-4.5651,-2.7278,-11.0226,0.0161,-0.6304,1.0925
4679.0,-4.5651,-2.7278,-11.0226,0.0161,-0.6304,1.0925
4684.0,-4.5938,-2.2702,-10.0179,0.0161,-0.6304,1.0925
4689.0,-4.5938,-2.2702,-10.0179,0.0161,-0.6304,1.0925
4694.0,-4.5938,-2.2702,-10.0179,-0.3028,-0.4661,1.2403
4699.0,-4.5938,-2.2702,-10.0179,-0.3028,-0.4661,1.2403
4704.0,-4.5938,-2.2702,-10.0179,-0.3028,-0.4661,1.2403
4709.0,-4.1532,-2.4942,-9.6436,-0.3028,-0.4661,1.2403
4714.0,-4.1532,-2.4942,-9.6436,-0.3028,-0.4661,1.2403
4719.0,-4.1532,-2.4942,-9.6436,-0.3028,-0.4661,1.2403
4724.0,-4.1532,-2.4942,-9.6436,-0.5368,-0.3879,1.3105
4729.0,-4.1532,-2.4942,-9.6436,-0.5368,-0.3879,1.3105
4734.0,-4.1532,-2.4942,-9.6436,-0.5368,-0.3879,1.3105
4739.0,-3.4061,-2.9232,-9.1554,-0.5368,-0.3879,1.3105
4744.0,-3.4061,-2.9232,-9.1554,-0.5368,-0.3879,1.3105
4749.0,-3.4061,-2.9232,-9.1554,-0.5368,-0.3879,1.3105
4754.0,-3.4061,-2.9232,-9.1554,-0.6901,-0.5443,1.3215
4759.0,-3.4061,-2.9232,-9.1554,-0.6901,-0.5443,1.3215
4764.0,-3.8323,-3.1091,-8.4541,-0.6901,-0.5443,1.3215
4769.0,-3.8323,-3.1091,-8.4541,-0.6901,-0.5443,1.3215
4774.0,-3.8323,-3.1091,-8.4541,-0.6901,-0.5443,1.3215
4779.0,-3.8323,-3.1091,-8.4541,-0.6901,-0.5443,1.3215
4784.0,-3.8323,-3.1091,-8.4541,-0.6901,-0.5443,1.3215
4789.0,-4.2011,-3.6621,-7.8143,-0.7286,-0.6573,1.3869
4795.0,-4.2011,-3.6621,-7.8143,-0.7286,-0.6573,1.3869
4799.0,-4.2011,-3.6621,-7.8143,-0.7286,-0.6573,1.3869
4805.0,-4.2011,-3.6621,-7.8143,-0.7286,-0.6573,1.3869
4809.0,-4.2011,-3.6621,-7.8143,-0.7286,-0.6573,1.3869
4814.0,-4.5555,-4.215,-7.7148,-0.7286,-0.6573,1.3869
4819.0,-4.5555,-4.215,-7.7148,-0.7115,-0.7776,1.5085
4824.0,-4.5555,-4.215,-7.7148,-0.7115,-0.7776,1.5085
4829.0,-4.5555,-4.215,-7.7148,-0.7115,-0.7776,1.5085
4834.0,-4.5555,-4.215,-7.7148,-0.7115,-0.7776,1.5085
4839.0,-4.5555,-4.215,-7.7148,-0.7115,-0.7776,1.5085
4844.0,-4.3927,-4.5773,-6.7764,-0.7115,-0.7776,1.5085
4849.0,-4.3927,-4.5773,-6.7764,-0.709,-0.8589,1.6056
4854.0,-4.3927,-4.5773,-6.7764,-0.709,-0.8589,1.6056
4860.0,-4.3927,-4.5773,-6.7764,-0.709,-0.8589,1.6056
4865.0,-4.3927,-4.5773,-6.7764,-0.709,-0.8589,1.6056
4869.0,-4.2586,-5.1159,-5.9945,-0.709,-0.8589,1.6056
4874.0,-4.2586,-5.1159,-5.9945,-0.709,-0.8589,1.6056
4879.0,-4.2586,-5.1159,-5.9945,-0.7518,-0.8766,1.6557
4884.0,-4.2586,-5.1159,-5.9945,-0.7518,-0.8766,1.6557
4889.0,-4.2586,-5.1159,-5.9945,-0.7518,-0.8766,1.6557
4894.0,-3.7222,-5.7118,-5.4258,-0.7518,-0.8766,1.6557
4899.0,-3.7222,-5.7118,-5.4258,-0.7518,-0.8766,1.6557
4905.0,-3.7222,-5.7118,-5.4258,-0.7518,-0.8766,1.6557
4909.0,-3.7222,-5.7118,-5.4258,-0.8343,-0.901,1.5103
4913.0,-3.7222,-5.7118,-5.4258,-0.8343,-0.901,1.5103
4919.0,-3.7222,-5.7118,-5.4258,-0.8343,-0.901,1.5103
4924.0,-3.1906,-6.2314,-5.3547,-0.8343,-0.901,1.5103
4930.0,-3.1906,-6.2314,-5.3547,-0.8343,-0.901,1.5103
4934.0,-3.1906,-6.2314,-5.3547,-0.8343,-0.901,1.5103
4939.0,-3.1906,-6.2314,-5.3547,-0.9815,-1.0183,1.379
4945.0,-3.1906,-6.2314,-5.3547,-0.9815,-1.0183,1.379
4949.0,-3.272,-6.4888,-4.9756,-0.9815,-1.0183,1.379
4954.0,-3.272,-6.4888,-4.9756,-0.9815,-1.0183,1.379
4959.0,-3.272,-6.4888,-4.9756,-0.9815,-1.0183,1.379
4964.0,-3.272,-6.4888,-4.9756,-0.9815,-1.0183,1.379
4970.0,-3.272,-6.4888,-4.9756,-1.034,-0.9841,1.3649
4974.0,-4.0814,-6.3982,-4.5301,-1.034,-0.9841,1.3649
4979.0,-4.0814,-6.3982,-4.5301,-1.034,-0.9841,1.3649
4985.0,-4.0814,-6.3982,-4.5301,-1.034,-0.9841,1.3649
4989.0,-4.0814,-6.3982,-4.5301,-1.034,-0.9841,1.3649
4994.0,-4.0814,-6.3982,-4.5301,-1.034,-0.9841,1.3649
4999.0,-4.0814,-6.3982,-4.5301,-1.045,-0.9407,1.4303
5005.0,-4.2586,-6.2028,-3.4496,-1.045,-0.9407,1.4303
5009.0,-4.2586,-6.2028,-3.4496,-1.045,-0.9407,1.4303
5014.0,-4.2586,-6.2028,-3.4496,-1.045,-0.9407,1.4303
5019.0,-4.2586,-6.2028,-3.4496,-1.045,-0.9407,1.4303
5024.0,-4.2586,-6.2028,-3.4496,-1.045,-0.9407,1.4303
5029.0,-4.2586,-6.2028,-3.4496,-1.045,-0.9407,1.4303
5034.0,-3.885,-6.5126,-3.4923,-1.1293,-0.8271,1.3111
5039.0,-3.885,-6.5126,-3.4923,-1.1293,-0.8271,1.3111
5044.0,-3.885,-6.5126,-3.4923,-1.1293,-0.8271,1.3111
5048.0,-3.885,-6.5126,-3.4923,-1.1293,-0.8271,1.3111
5054.0,-3.885,-6.5126,-3.4923,-1.1293,-0.8271,1.3111
5059.0,-3.4444,-6.465,-2.7909,-1.1293,-0.8271,1.3111
5065.0,-3.4444,-6.465,-2.7909,-1.3382,-0.6145,1.3502
5069.0,-3.4444,-6.465,-2.7909,-1.3382,-0.6145,1.3502
5074.0,-3.4444,-6.465,-2.7909,-1.3382,-0.6145,1.3502
5079.0,-3.4444,-6.465,-2.7909,-1.3382,-0.6145,1.3502
5084.0,-3.4731,-6.6938,-2.8004,-1.3382,-0.6145,1.3502
5089.0,-3.4731,-6.6938,-2.8004,-1.3382,-0.6145,1.3502
5094.0,-3.4731,-6.6938,-2.8004,-1.4164,-0.5846,1.4205
5099.0,-3.4731,-6.6938,-2.8004,-1.4164,-0.5846,1.4205
5104.0,-3.4731,-6.6938,-2.8004,-1.4164,-0.5846,1.4205
5110.0,-3.4731,-6.6938,-2.8004,-1.4164,-0.5846,1.4205
5114.0,-3.9856,-6.8606,-2.644,-1.4164,-0.5846,1.4205
5119.0,-3.9856,-6.8606,-2.644,-1.4164,-0.5846,1.4205
5124.0,-3.9856,-6.8606,-2.644,-1.2087,-0.609,1.4052
5129.0,-3.9856,-6.8606,-2.644,-1.2087,-0.609,1.4052
5134.0,-3.9856,-6.8606,-2.644,-1.2087,-0.609,1.4052
5139.0,-3.8515,-6.7414,-1.99,-1.2087,-0.609,1.4052
5144.0,-3.8515,-6.7414,-1.99,-1.2087,-0.609,1.4052
5149.0,-3.8515,-6.7414,-1.99,-1.2087,-0.609,1.4052
5154.0,-3.8515,-6.7414,-1.99,-1.2087,-0.609,1.4052
5159.0,-3.8515,-6.7414,-1.99,-0.9595,-0.6677,1.4834
5164.0,-4.0143,-6.5603,-2.8667,-0.9595,-0.6677,1.4834
5169.0,-4.0143,-6.5603,-2.8667,-0.9595,-0.6677,1.4834
5174.0,-4.0143,-6.5603,-2.8667,-0.9595,-0.6677,1.4834
5179.0,-4.0143,-6.5603,-2.8667,-0.9595,-0.6677,1.4834
5184.0,-4.0143,-6.5603,-2.8667,-0.9595,-0.6677,1.4834
5189.0,-4.0143,-6.5603,-2.8667,-0.6302,-0.0892,0.9226
5194.0,-4.498,-7.037,-4.2884,-0.6302,-0.0892,0.9226
5199.0,-4.498,-7.037,-4.2884,-0.6302,-0.0892,0.9226
5204.0,-4.498,-7.037,-4.2884,-0.6302,-0.0892,0.9226
5209.0,-4.498,-7.037,-4.2884,-0.6302,-0.0892,0.9226
5214.0,-4.498,-7.037,-4.2884,-0.6302,-0.0892,0.9226
5219.0,-5.3026,-9.1153,-5.1747,-0.221,0.3433,0.225
5224.0,-5.3026,-9.1153,-5.1747,-0.221,0.3433,0.225
5229.0,-5.3026,-9.1153,-5.1747,-0.221,0.3433,0.225
5235.0,-5.3026,-9.1153,-5.1747,-0.221,0.3433,0.225
5239.0,-5.3026,-9.1153,-5.1747,-0.221,0.3433,0.225
5244.0,-5.3026,-9.1153,-5.1747,-0.221,0.3433,0.225
5249.0,-4.8668,-11.4701,-5.8428,0.1016,-0.0904,-0.0877
5254.0,-4.8668,-11.4701,-5.8428,0.1016,-0.0904,-0.0877
5259.0,-4.8668,-11.4701,-5.8428,0.1016,-0.0904,-0.0877
5264.0,-4.8668,-11.4701,-5.8428,0.1016,-0.0904,-0.0877
5269.0,-4.8668,-11.4701,-5.8428,0.1016,-0.0904,-0.0877
5274.0,-3.2049,-11.4081,-5.1841,0.1016,-0.0904,-0.0877
5280.0,-3.2049,-11.4081,-5.1841,0.2128,0.2535,-1.0334
5284.0,-3.2049,-11.4081,-5.1841,0.2128,0.2535,-1.0334
5289.0,-3.2049,-11.4081,-5.1841,0.2128,0.2535,-1.0334
5294.0,-3.2049,-11.4081,-5.1841,0.2128,0.2535,-1.0334
5298.0,-2.9032,-9.4108,-5.4448,0.2128,0.2535,-1.0334
5304.0,-2.9032,-9.4108,-5.4448,0.2128,0.2535,-1.0334
5309.0,-2.9032,-9.4108,-5.4448,0.5903,0.1643,-1.3987
5314.0,-2.9032,-9.4108,-5.4448,0.5903,0.1643,-1.3987
5320.0,-2.9032,-9.4108,-5.4448,0.5903,0.1643,-1.3987
5324.0,-2.9032,-9.4108,-5.4448,0.5903,0.1643,-1.3987
5330.0,-3.0565,-7.2658,-1.7625,0.5903,0.1643,-1.3987
5334.0,-3.0565,-7.2658,-1.7625,0.5903,0.1643,-1.3987
5339.0,-3.0565,-7.2658,-1.7625,0.5903,0.1643,-1.3987
5344.0,-3.0565,-7.2658,-1.7625,0.7222,-0.0037,-0.8544
5349.0,-3.0565,-7.2658,-1.7625,0.7222,-0.0037,-0.8544
5354.0,-2.5009,-6.6509,-1.7057,0.7222,-0.0037,-0.8544
5359.0,-2.5009,-6.6509,-1.7057,0.7222,-0.0037,-0.8544
5364.0,-2.5009,-6.6509,-1.7057,0.7222,-0.0037,-0.8544
5369.0,-2.5009,-6.6509,-1.7057,0.7222,-0.0037,-0.8544
5374.0,-2.5009,-6.6509,-1.7057,1.0087,0.967,-1.3339
5379.0,-3.2049,-6.8463,-2.6061,1.0087,0.967,-1.3339
5384.0,-3.2049,-6.8463,-2.6061,1.0087,0.967,-1.3339
5390.0,-3.2049,-6.8463,-2.6061,1.0087,0.967,-1.3339
5394.0,-3.2049,-6.8463,-2.6061,1.0087,0.967,-1.3339
5399.0,-3.2049,-6.8463,-2.6061,1.0087,0.967,-1.3339
5404.0,-3.2049,-6.8463,-2.6061,1.1908,0.4887,-1.0615
5409.0,-4.5028,-6.7986,-3.914,1.1908,0.4887,-1.0615
5414.0,-4.5028,-6.7986,-3.914,1.1908,0.4887,-1.0615
5419.0,-4.5028,-6.7986,-3.914,1.1908,0.4887,-1.0615
5424.0,-4.5028,-6.7986,-3.914,1.1908,0.4887,-1.0615
5430.0,-4.5028,-6.7986,-3.914,1.1908,0.4887,-1.0615
5434.0,-4.5028,-6.7986,-3.914,1.2152,0.6555,-1.0633
5439.0,-4.7519,-6.9702,-2.8999,1.2152,0.6555,-1.0633
5444.0,-4.7519,-6.9702,-2.8999,1.2152,0.6555,-1.0633
5449.0,-4.7519,-6.9702,-2.8999,1.2152,0.6555,-1.0633
5454.0,-4.7519,-6.9702,-2.8999,1.2152,0.6555,-1.0633
5459.0,-4.7519,-6.9702,-2.8999,1.2152,0.6555,-1.0633
5464.0,-1.955,-7.6566,-3.606,0.9904,1.4808,-1.4048
5469.0,-1.955,-7.6566,-3.606,0.9904,1.4808,-1.4048
5474.0,-1.955,-7.6566,-3.606,0.9904,1.4808,-1.4048
5479.0,-1.955,-7.6566,-3.606,0.9904,1.4808,-1.4048
5484.0,-1.955,-7.6566,-3.606,0.9904,1.4808,-1.4048
5489.0,-2.5632,-6.5079,-6.3689,0.9904,1.4808,-1.4048
5494.0,-2.5632,-6.5079,-6.3689,0.8493,1.0183,-1.274
5499.0,-2.5632,-6.5079,-6.3689,0.8493,1.0183,-1.274
5504.0,-2.5632,-6.5079,-6.3689,0.8493,1.0183,-1.274
5509.0,-2.5632,-6.5079,-6.3689,0.8493,1.0183,-1.274
5515.0,-2.5632,-6.5079,-6.3689,0.8493,1.0183,-1.274
5519.0,-4.0383,-5.4878,-3.1558,0.8493,1.0183,-1.274
5524.0,-4.0383,-5.4878,-3.1558,0.8493,1.0183,-1.274
5530.0,-4.0383,-5.4878,-3.1558,0.8493,1.0183,-1.274
5534.0,-4.0383,-5.4878,-3.1558,0.8438,-0.0171,-1.5459
5540.0,-4.0383,-5.4878,-3.1558,0.8438,-0.0171,-1.5459
5544.0,-3.4109,-5.0158,-3.5728,0.8438,-0.0171,-1.5459
5549.0,-3.4109,-5.0158,-3.5728,0.8438,-0.0171,-1.5459
5554.0,-3.4109,-5.0158,-3.5728,0.8438,-0.0171,-1.5459
5559.0,-3.4109,-5.0158,-3.5728,0.8438,-0.0171,-1.5459
5564.0,-3.4109,-5.0158,-3.5728,0.8029,0.956,-1.6601
5570.0,-4.704,-6.4459,-6.4921,0.8029,0.956,-1.6601
5574.0,-4.704,-6.4459,-6.4921,0.8029,0.956,-1.6601
5579.0,-4.704,-6.4459,-6.4921,0.8029,0.956,-1.6601
5585.0,-4.704,-6.4459,-6.4921,0.8029,0.956,-1.6601
5589.0,-4.704,-6.4459,-6.4921,0.8029,0.956,-1.6601
5594.0,-4.0383,-6.136,-4.1036,0.5078,0.774,-1.4451
5599.0,-4.0383,-6.136,-4.1036,0.5078,0.774,-1.4451
5604.0,-4.0383,-6.136,-4.1036,0.5078,0.774,-1.4451
5609.0,-4.0383,-6.136,-4.1036,0.5078,0.774,-1.4451
5614.0,-4.0383,-6.136,-4.1036,0.5078,0.774,-1.4451
5618.0,-4.0383,-6.136,-4.1036,0.5078,0.774,-1.4451
5624.0,-4.4501,-6.2266,-8.5062,0.5078,0.774,-1.4451
5628.0,-4.4501,-6.2266,-8.5062,0.5035,0.6041,-1.6039
5634.0,-4.4501,-6.2266,-8.5062,0.5035,0.6041,-1.6039
5639.0,-4.4501,-6.2266,-8.5062,0.5035,0.6041,-1.6039
5644.0,-4.4501,-6.2266,-8.5062,0.5035,0.6041,-1.6039
5649.0,-3.8323,-5.9835,-5.876,0.5035,0.6041,-1.6039
5654.0,-3.8323,-5.9835,-5.876,0.5035,0.6041,-1.6039
5659.0,-3.8323,-5.9835,-5.876,0.6318,0.372,-1.2325
5664.0,-3.8323,-5.9835,-5.876,0.6318,0.372,-1.2325
5669.0,-3.8323,-5.9835,-5.876,0.6318,0.372,-1.2325
5674.0,-3.8323,-5.9835,-5.876,0.6318,0.372,-1.2325
5679.0,-4.3639,-5.4019,-7.4352,0.6318,0.372,-1.2325
5684.0,-4.3639,-5.4019,-7.4352,0.6318,0.372,-1.2325
5689.0,-4.3639,-5.4019,-7.4352,0.3246,0.5809,-1.2447
5694.0,-4.3639,-5.4019,-7.4352,0.3246,0.5809,-1.2447
5699.0,-4.3639,-5.4019,-7.4352,0.3246,0.5809,-1.2447
5705.0,-4.158,-5.0873,-7.6484,0.3246,0.5809,-1.2447
5709.0,-4.158,-5.0873,-7.6484,0.3246,0.5809,-1.2447
5714.0,-4.158,-5.0873,-7.6484,0.3246,0.5809,-1.2447
5719.0,-4.158,-5.0873,-7.6484,0.1841,0.8632,-1.4097
5724.0,-4.158,-5.0873,-7.6484,0.1841,0.8632,-1.4097
5729.0,-4.158,-5.0873,-7.6484,0.1841,0.8632,-1.4097
5734.0,-3.6647,-4.3723,-7.8949,0.1841,0.8632,-1.4097
5740.0,-3.6647,-4.3723,-7.8949,0.1841,0.8632,-1.4097
5744.0,-3.6647,-4.3723,-7.8949,0.1841,0.8632,-1.4097
5749.0,-3.6647,-4.3723,-7.8949,0.1199,0.7782,-1.3895
5754.0,-3.6647,-4.3723,-7.8949,0.1199,0.7782,-1.3895
5759.0,-2.75,-3.6716,-9.5441,0.1199,0.7782,-1.3895
5764.0,-2.75,-3.6716,-9.5441,0.1199,0.7782,-1.3895
5769.0,-2.75,-3.6716,-9.5441,0.1199,0.7782,-1.3895
5774.0,-2.75,-3.6716,-9.5441,0.1199,0.7782,-1.3895
5780.0,-2.75,-3.6716,-9.5441,0.1443,0.2761,-1.3321
5785.0,-3.545,-3.2998,-7.2361,0.1443,0.2761,-1.3321
5790.0,-3.545,-3.2998,-7.2361,0.1443,0.2761,-1.3321
5795.0,-3.545,-3.2998,-7.2361,0.1443,0.2761,-1.3321
5798.0,-3.545,-3.2998,-7.2361,0.1443,0.2761,-1.3321
5804.0,-3.545,-3.2998,-7.2361,0.1443,0.2761,-1.3321
5809.0,-3.545,-3.2998,-7.2361,0.071,0.4753,-1.2227
5814.0,-4.1388,-1.9412,-7.7005,0.071,0.4753,-1.2227
5819.0,-4.1388,-1.9412,-7.7005,0.071,0.4753,-1.2227
5824.0,-4.1388,-1.9412,-7.7005,0.071,0.4753,-1.2227
5829.0,-4.1388,-1.9412,-7.7005,0.071,0.4753,-1.2227
5834.0,-4.1388,-1.9412,-7.7005,0.071,0.4753,-1.2227
5839.0,-4.2442,-1.8173,-9.3592,0.0735,0.1924,-1.0541
5844.0,-4.2442,-1.8173,-9.3592,0.0735,0.1924,-1.0541
5849.0,-4.2442,-1.8173,-9.3592,0.0735,0.1924,-1.0541
5854.0,-4.2442,-1.8173,-9.3592,0.0735,0.1924,-1.0541
5860.0,-4.2442,-1.8173,-9.3592,0.0735,0.1924,-1.0541
5864.0,-4.2442,-1.8173,-9.3592,0.0735,0.1924,-1.0541
5870.0,-3.7653,-2.0175,-9.9469,0.0735,0.1924,-1.0541
5874.0,-3.7653,-2.0175,-9.9469,0.079,0.1607,-0.9222
5880.0,-3.7653,-2.0175,-9.9469,0.079,0.1607,-0.9222
5884.0,-3.7653,-2.0175,-9.9469,0.079,0.1607,-0.9222
5889.0,-3.7653,-2.0175,-9.9469,0.079,0.1607,-0.9222
5894.0,-4.431,-2.0652,-9.5583,0.079,0.1607,-0.9222
5900.0,-4.431,-2.0652,-9.5583,0.079,0.1607,-0.9222
5904.0,-4.431,-2.0652,-9.5583,0.0857,0.0073,-0.7572
5909.0,-4.431,-2.0652,-9.5583,0.0857,0.0073,-0.7572
5914.0,-4.431,-2.0652,-9.5583,0.0857,0.0073,-0.7572
5920.0,-4.5938,-2.1701,-10.7904,0.0857,0.0073,-0.7572
5924.0,-4.5938,-2.1701,-10.7904,0.0857,0.0073,-0.7572
5929.0,-4.5938,-2.1701,-10.7904,0.0857,0.0073,-0.7572
5934.0,-4.5938,-2.1701,-10.7904,0.0857,0.0073,-0.7572
5939.0,-4.5938,-2.1701,-10.7904,0.0026,-0.0916,-0.5435
5944.0,-4.5938,-2.1701,-10.7904,0.0026,-0.0916,-0.5435
5950.0,-5.0871,-2.4561,-10.8141,0.0026,-0.0916,-0.5435
5954.0,-5.0871,-2.4561,-10.8141,0.0026,-0.0916,-0.5435
5959.0,-5.0871,-2.4561,-10.8141,0.0026,-0.0916,-0.5435
5964.0,-5.0871,-2.4561,-10.8141,0.0026,-0.0916,-0.5435
5969.0,-5.0871,-2.4561,-10.8141,0.0204,-0.1826,-0.2203
5975.0,-5.5708,-2.5848,-11.2264,0.0204,-0.1826,-0.2203
5980.0,-5.5708,-2.5848,-11.2264,0.0204,-0.1826,-0.2203
5985.0,-5.5708,-2.5848,-11.2264,0.0204,-0.1826,-0.2203
5989.0,-5.5708,-2.5848,-11.2264,0.0204,-0.1826,-0.2203
5994.0,-5.5708,-2.5848,-11.2264,0.1004,-0.2285,0.1474
6000.0,-5.6857,-2.8088,-10.6483,0.1004,-0.2285,0.1474
6005.0,-5.6857,-2.8088,-10.6483,0.1004,-0.2285,0.1474
6009.0,-5.6857,-2.8088,-10.6483,0.1004,-0.2285,0.1474
6014.0,-5.6857,-2.8088,-10.6483,0.1004,-0.2285,0.1474
6019.0,-5.6857,-2.8088,-10.6483,0.1004,-0.2285,0.1474
6024.0,-5.6857,-2.8088,-10.6483,0.1004,-0.2285,0.1474
6029.0,-5.8438,-2.7993,-10.8283,0.1608,-0.4557,0.6074
6035.0,-5.8438,-2.7993,-10.8283,0.1608,-0.4557,0.6074
6039.0,-5.8438,-2.7993,-10.8283,0.1608,-0.4557,0.6074
6044.0,-5.8438,-2.7993,-10.8283,0.1608,-0.4557,0.6074
6049.0,-5.8438,-2.7993,-10.8283,0.1608,-0.4557,0.6074
6055.0,-6.021,-2.4894,-11.0937,0.1608,-0.4557,0.6074
6060.0,-6.021,-2.4894,-11.0937,0.1834,-0.6414,1.0057
6064.0,-6.021,-2.4894,-11.0937,0.1834,-0.6414,1.0057
6069.0,-6.021,-2.4894,-11.0937,0.1834,-0.6414,1.0057
6074.0,-6.021,-2.4894,-11.0937,0.1834,-0.6414,1.0057
6079.0,-6.021,-2.4894,-11.0937,0.1834,-0.6414,1.0057
6084.0,-5.5181,-2.9804,-10.634,0.1834,-0.6414,1.0057
6089.0,-5.5181,-2.9804,-10.634,0.1877,-0.609,1.327
6094.0,-5.5181,-2.9804,-10.634,0.1877,-0.609,1.327
6099.0,-5.5181,-2.9804,-10.634,0.1877,-0.609,1.327
6104.0,-5.5181,-2.9804,-10.634,0.1877,-0.609,1.327
6109.0,-5.1733,-3.1949,-8.909,0.1877,-0.609,1.327
6114.0,-5.1733,-3.1949,-8.909,0.1877,-0.609,1.327
6119.0,-5.1733,-3.1949,-8.909,0.1877,-0.609,1.327
6125.0,-5.1733,-3.1949,-8.909,0.0118,-0.46,1.4834
6129.0,-5.1733,-3.1949,-8.909,0.0118,-0.46,1.4834
6134.0,-5.0296,-3.2664,-8.9375,0.0118,-0.46,1.4834
6139.0,-5.0296,-3.2664,-8.9375,0.0118,-0.46,1.4834
6144.0,-5.0296,-3.2664,-8.9375,0.0118,-0.46,1.4834
6149.0,-5.0296,-3.2664,-8.9375,0.0118,-0.46,1.4834
6154.0,-5.0296,-3.2664,-8.9375,-0.0835,-0.5675,1.4962
6160.0,-5.0296,-3.2664,-8.9375,-0.0835,-0.5675,1.4962
6164.0,-4.225,-3.7955,-8.255,-0.0835,-0.5675,1.4962
6169.0,-4.225,-3.7955,-8.255,-0.0835,-0.5675,1.4962
6174.0,-4.225,-3.7955,-8.255,-0.0835,-0.5675,1.4962
6179.0,-4.225,-3.7955,-8.255,-0.0835,-0.5675,1.4962
6185.0,-4.225,-3.7955,-8.255,-0.3156,-0.4771,1.4547
6190.0,-3.6407,-4.4677,-7.7764,-0.3156,-0.4771,1.4547
6194.0,-3.6407,-4.4677,-7.7764,-0.3156,-0.4771,1.4547
6199.0,-3.6407,-4.4677,-7.7764,-0.3156,-0.4771,1.4547
6204.0,-3.6407,-4.4677,-7.7764,-0.3156,-0.4771,1.4547
6209.0,-3.6407,-4.4677,-7.7764,-0.3156,-0.4771,1.4547
6214.0,-3.2816,-5.0254,-7.4778,-0.5129,-0.6353,1.4119
6219.0,-3.2816,-5.0254,-7.4778,-0.5129,-0.6353,1.4119
6224.0,-3.2816,-5.0254,-7.4778,-0.5129,-0.6353,1.4119
6229.0,-3.2816,-5.0254,-7.4778,-0.5129,-0.6353,1.4119
6234.0,-3.2816,-5.0254,-7.4778,-0.5129,-0.6353,1.4119
6239.0,-3.2816,-5.0254,-7.4778,-0.5129,-0.6353,1.4119
6244.0,-3.7988,-5.1588,-7.3641,-0.5129,-0.6353,1.4119
6249.0,-3.7988,-5.1588,-7.3641,-0.6785,-0.865,1.2904
6254.0,-3.7988,-5.1588,-7.3641,-0.6785,-0.865,1.2904
6259.0,-3.7988,-5.1588,-7.3641,-0.6785,-0.865,1.2904
6264.0,-3.7988,-5.1588,-7.3641,-0.6785,-0.865,1.2904
6270.0,-4.6896,-5.2876,-6.2741,-0.6785,-0.865,1.2904
6274.0,-4.6896,-5.2876,-6.2741,-0.6785,-0.865,1.2904
6279.0,-4.6896,-5.2876,-6.2741,-0.6797,-0.8253,1.324
6284.0,-4.6896,-5.2876,-6.2741,-0.6797,-0.8253,1.324
6289.0,-4.6896,-5.2876,-6.2741,-0.6797,-0.8253,1.324
6294.0,-4.5651,-5.6927,-5.9045,-0.6797,-0.8253,1.324
6299.0,-4.5651,-5.6927,-5.9045,-0.6797,-0.8253,1.324
6304.0,-4.5651,-5.6927,-5.9045,-0.6797,-0.8253,1.324
6309.0,-4.5651,-5.6927,-5.9045,-0.7829,-0.7721,1.3087
6314.0,-4.5651,-5.6927,-5.9045,-0.7829,-0.7721,1.3087
6319.0,-4.5651,-5.6927,-5.9045,-0.7829,-0.7721,1.3087
6324.0,-4.0814,-6.6604,-5.5869,-0.7829,-0.7721,1.3087
6330.0,-4.0814,-6.6604,-5.5869,-0.7829,-0.7721,1.3087
6334.0,-4.0814,-6.6604,-5.5869,-0.7829,-0.7721,1.3087
6339.0,-4.0814,-6.6604,-5.5869,-0.8856,-0.8277,1.2427
6344.0,-4.0814,-6.6604,-5.5869,-0.8856,-0.8277,1.2427
6349.0,-4.2346,-6.9988,-5.2742,-0.8856,-0.8277,1.2427
6354.0,-4.2346,-6.9988,-5.2742,-0.8856,-0.8277,1.2427
6363.0,-4.2346,-6.9988,-5.2742,-0.8856,-0.8277,1.2427
6363.0,-4.2346,-6.9988,-5.2742,-0.8856,-0.8277,1.2427
6369.0,-4.2346,-6.9988,-5.2742,-0.9442,-0.8692,1.1505
6374.0,-4.0526,-6.913,-4.2979,-0.9442,-0.8692,1.1505
6379.0,-4.0526,-6.913,-4.2979,-0.9442,-0.8692,1.1505
6384.0,-4.0526,-6.913,-4.2979,-0.9442,-0.8692,1.1505
6389.0,-4.0526,-6.913,-4.2979,-0.9442,-0.8692,1.1505
6394.0,-4.0526,-6.913,-4.2979,-0.9442,-0.8692,1.1505
6399.0,-4.0526,-6.913,-4.2979,-0.9442,-0.8692,1.1505
6404.0,-3.9521,-6.9655,-4.5017,-1.1256,-0.6707,1.123
6408.0,-3.9521,-6.9655,-4.5017,-1.1256,-0.6707,1.123
6414.0,-3.9521,-6.9655,-4.5017,-1.1256,-0.6707,1.123
6419.0,-3.9521,-6.9655,-4.5017,-1.1256,-0.6707,1.123
6424.0,-3.9521,-6.9655,-4.5017,-1.1256,-0.6707,1.123
6429.0,-3.8563,-6.9083,-3.388,-1.1256,-0.6707,1.123
6434.0,-3.8563,-6.9083,-3.388,-1.1965,-0.755,1.2415
6439.0,-3.8563,-6.9083,-3.388,-1.1965,-0.755,1.2415
6444.0,-3.8563,-6.9083,-3.388,-1.1965,-0.755,1.2415
6449.0,-3.8563,-6.9083,-3.388,-1.1965,-0.755,1.2415
6454.0,-3.3055,-6.7224,-4.061,-1.1965,-0.755,1.2415
6459.0,-3.3055,-6.7224,-4.061,-1.1965,-0.755,1.2415
6464.0,-3.3055,-6.7224,-4.061,-1.2393,-0.8063,1.2226
6469.0,-3.3055,-6.7224,-4.061,-1.2393,-0.8063,1.2226
6474.0,-3.3055,-6.7224,-4.061,-1.2393,-0.8063,1.2226
6479.0,-3.3055,-6.7224,-4.061,-1.2393,-0.8063,1.2226
6484.0,-2.75,-6.4077,-2.7293,-1.2393,-0.8063,1.2226
6489.0,-2.75,-6.4077,-2.7293,-1.2393,-0.8063,1.2226
6494.0,-2.75,-6.4077,-2.7293,-1.2393,-0.8063,1.2226
6500.0,-2.75,-6.4077,-2.7293,-1.3877,-1.0556,1.3881
6504.0,-2.75,-6.4077,-2.7293,-1.3877,-1.0556,1.3881
6509.0,-2.7835,-6.465,-2.9852,-1.3877,-1.0556,1.3881
6514.0,-2.7835,-6.465,-2.9852,-1.3877,-1.0556,1.3881
6519.0,-2.7835,-6.465,-2.9852,-1.3877,-1.0556,1.3881
6524.0,-2.7835,-6.465,-2.9852,-1.3877,-1.0556,1.3881
6529.0,-2.7835,-6.465,-2.9852,-1.3779,-1.0098,1.1712
6534.0,-2.7835,-6.465,-2.9852,-1.3779,-1.0098,1.1712
6539.0,-3.181,-5.8786,-2.8525,-1.3779,-1.0098,1.1712
6544.0,-3.181,-5.8786,-2.8525,-1.3779,-1.0098,1.1712
6549.0,-3.181,-5.8786,-2.8525,-1.3779,-1.0098,1.1712
6554.0,-3.181,-5.8786,-2.8525,-1.3779,-1.0098,1.1712
6559.0,-3.181,-5.8786,-2.8525,-1.3486,-0.7672,1.1725
6565.0,-3.5402,-5.3972,-2.08,-1.3486,-0.7672,1.1725
6569.0,-3.5402,-5.3972,-2.08,-1.3486,-0.7672,1.1725
6574.0,-3.5402,-5.3972,-2.08,-1.3486,-0.7672,1.1725
6582.0,-3.5402,-5.3972,-2.08,-1.3486,-0.7672,1.1725
6585.0,-3.5402,-5.3972,-2.08,-1.3486,-0.7672,1.1725
6589.0,-3.5402,-5.3972,-2.08,-1.3486,-0.7672,1.1725
6594.0,-4.7758,-5.8167,-3.8809,-1.1,-0.3292,0.9556
6599.0,-4.7758,-5.8167,-3.8809,-1.1,-0.3292,0.9556
6604.0,-4.7758,-5.8167,-3.8809,-1.1,-0.3292,0.9556
6609.0,-4.7758,-5.8167,-3.8809,-1.1,-0.3292,0.9556
6613.0,-4.7758,-5.8167,-3.8809,-1.1,-0.3292,0.9556
6619.0,-6.27,-7.1895,-5.4685,-1.1,-0.3292,0.9556
6624.0,-6.27,-7.1895,-5.4685,-0.417,-0.3592,0.4846
6629.0,-6.27,-7.1895,-5.4685,-0.417,-0.3592,0.4846
6634.0,-6.27,-7.1895,-5.4685,-0.417,-0.3592,0.4846
6640.0,-6.27,-7.1895,-5.4685,-0.417,-0.3592,0.4846
6644.0,-6.7154,-8.6196,-4.6913,-0.417,-0.3592,0.4846
6650.0,-6.7154,-8.6196,-4.6913,-0.417,-0.3592,0.4846
6654.0,-6.7154,-8.6196,-4.6913,0.2745,-0.6078,-0.0047
6660.0,-6.7154,-8.6196,-4.6913,0.2745,-0.6078,-0.0047
6664.0,-6.7154,-8.6196,-4.6913,0.2745,-0.6078,-0.0047
6669.0,-6.7154,-8.6196,-4.6913,0.2745,-0.6078,-0.0047
6674.0,-7.0028,-10.0257,-4.6486,0.2745,-0.6078,-0.0047
6679.0,-7.0028,-10.0257,-4.6486,0.2745,-0.6078,-0.0047
6684.0,-7.0028,-10.0257,-4.6486,0.765,-0.2639,-0.7518
6689.0,-7.0028,-10.0257,-4.6486,0.765,-0.2639,-0.7518
6694.0,-7.0028,-10.0257,-4.6486,0.765,-0.2639,-0.7518
6699.0,-6.0785,-10.2593,-6.6106,0.765,-0.2639,-0.7518
6704.0,-6.0785,-10.2593,-6.6106,0.765,-0.2639,-0.7518
6709.0,-6.0785,-10.2593,-6.6106,0.765,-0.2639,-0.7518
6714.0,-6.0785,-10.2593,-6.6106,0.765,-0.2639,-0.7518
6719.0,-6.0785,-10.2593,-6.6106,0.7009,0.4282,-1.4286
6724.0,-2.726,-8.8436,-3.8145,0.7009,0.4282,-1.4286
6729.0,-2.726,-8.8436,-3.8145,0.7009,0.4282,-1.4286
6734.0,-2.726,-8.8436,-3.8145,0.7009,0.4282,-1.4286
6739.0,-2.726,-8.8436,-3.8145,0.7009,0.4282,-1.4286
6744.0,-2.726,-8.8436,-3.8145,0.7009,0.4282,-1.4286
6750.0,-2.726,-8.8436,-2.5634,0.5396,1.036,-0.6785
6754.0,-1.112,-6.4888,-2.5634,0.5396,1.036,-0.6785
6759.0,-1.112,-6.4888,-2.5634,0.5396,1.036,-0.6785
6764.0,-1.112,-6.4888,-2.5634,0.5396,1.036,-0.6785
6769.0,-1.112,-6.4888,-2.5634,0.5396,1.036,-0.6785
6774.0,-1.112,-6.4888,-2.5634,0.5396,1.036,-0.6785
6779.0,-1.0019,-5.912,-4.3927,0.6935,0.6072,-0.7695
6784.0,-1.0019,-5.912,-4.3927,0.6935,0.6072,-0.7695
6789.0,-1.0019,-5.912,-4.3927,0.6935,0.6072,-0.7695
6794.0,-1.0019,-5.912,-4.3927,0.6935,0.6072,-0.7695
6799.0,-1.0019,-5.912,-4.3927,0.6935,0.6072,-0.7695
6804.0,-2.9224,-6.2552,-5.4306,0.6935,0.6072,-0.7695
6809.0,-2.9224,-6.2552,-5.4306,1.1499,0.1717,-1.2136
6814.0,-2.9224,-6.2552,-5.4306,1.1499,0.1717,-1.2136
6819.0,-2.9224,-6.2552,-5.4306,1.1499,0.1717,-1.2136
6825.0,-2.9224,-6.2552,-5.4306,1.1499,0.1717,-1.2136
6829.0,-2.9224,-6.2552,-5.4306,1.1499,0.1717,-1.2136
6834.0,-6.5766,-7.3706,-0.7673,1.1499,0.1717,-1.2136
6839.0,-6.5766,-7.3706,-0.7673,1.1499,0.1717,-1.2136
6845.0,-6.5766,-7.3706,-0.7673,1.6245,0.4081,-1.0285
6850.0,-6.5766,-7.3706,-0.7673,1.6245,0.4081,-1.0285
6854.0,-6.5766,-7.3706,-0.7673,1.6245,0.4081,-1.0285
6859.0,-5.8007,-4.911,-1.8573,1.6245,0.4081,-1.0285
6864.0,-5.8007,-4.911,-1.8573,1.6245,0.4081,-1.0285
6869.0,-5.8007,-4.911,-1.8573,1.6245,0.4081,-1.0285
6874.0,-5.8007,-4.911,-1.8573,1.4052,0.143,-1.4256
6879.0,-5.8007,-4.911,-1.8573,1.4052,0.143,-1.4256
6884.0,-5.8007,-4.911,-1.8573,1.4052,0.143,-1.4256
6889.0,-5.1877,-4.1626,-3.0326,1.4052,0.143,-1.4256
6895.0,-5.1877,-4.1626,-3.0326,1.4052,0.143,-1.4256
6899.0,-5.1877,-4.1626,-3.0326,1.4052,0.143,-1.4256
6904.0,-5.1877,-4.1626,-3.0326,1.4932,2.2969,-1.2765
6909.0,-5.1877,-4.1626,-3.0326,1.4932,2.2969,-1.2765
6914.0,-4.2298,-5.1159,-5.8002,1.4932,2.2969,-1.2765
6919.0,-4.2298,-5.1159,-5.8002,1.4932,2.2969,-1.2765
6924.0,-4.2298,-5.1159,-5.8002,1.4932,2.2969,-1.2765
6929.0,-4.2298,-5.1159,-5.8002,1.4932,2.2969,-1.2765
6934.0,-4.2298,-5.1159,-5.8002,1.0167,0.4826,-1.4543
6939.0,-2.3908,-6.7366,-5.1415,1.0167,0.4826,-1.4543
6944.0,-2.3908,-6.7366,-5.1415,1.0167,0.4826,-1.4543
6949.0,-2.3908,-6.7366,-5.1415,1.0167,0.4826,-1.4543
6955.0,-2.3908,-6.7366,-5.1415,1.0167,0.4826,-1.4543
6960.0,-2.3908,-6.7366,-5.1415,1.0167,0.4826,-1.4543
6964.0,-2.3908,-6.7366,-5.1415,1.1114,0.862,-1.1366
6969.0,-1.8735,-7.2801,-7.3499,1.1114,0.862,-1.1366
6974.0,-1.8735,-7.2801,-7.3499,1.1114,0.862,-1.1366
6979.0,-1.8735,-7.2801,-7.3499,1.1114,0.862,-1.1366
6984.0,-1.8735,-7.2801,-7.3499,1.1114,0.862,-1.1366
6989.0,-1.8735,-7.2801,-7.3499,1.1114,0.862,-1.1366
6994.0,-3.9904,-7.0131,-4.8713,0.9623,0.2157,-1.4341
6999.0,-3.9904,-7.0131,-4.8713,0.9623,0.2157,-1.4341
7004.0,-3.9904,-7.0131,-4.8713,0.9623,0.2157,-1.4341
7009.0,-3.9904,-7.0131,-4.8713,0.9623,0.2157,-1.4341
7015.0,-3.9904,-7.0131,-4.8713,0.9623,0.2157,-1.4341
7019.0,-4.8524,-5.6975,-7.2219,0.9623,0.2157,-1.4341
7024.0,-4.8524,-5.6975,-7.2219,0.9623,0.2157,-1.4341
7029.0,-4.8524,-5.6975,-7.2219,0.5879,0.8332,-1.4982
7034.0,-4.8524,-5.6975,-7.2219,0.5879,0.8332,-1.4982
7039.0,-4.8524,-5.6975,-7.2219,0.5879,0.8332,-1.4982
7044.0,-4.8524,-5.6975,-7.2219,0.5879,0.8332,-1.4982
7049.0,-5.7384,-5.197,-6.2978,0.5879,0.8332,-1.4982
7054.0,-5.7384,-5.197,-6.2978,0.5879,0.8332,-1.4982
7060.0,-5.7384,-5.197,-6.2978,0.6434,0.6158,-1.2997
7064.0,-5.7384,-5.197,-6.2978,0.6434,0.6158,-1.2997
7069.0,-5.7384,-5.197,-6.2978,0.6434,0.6158,-1.2997
7074.0,-4.2011,-5.421,-6.9944,0.6434,0.6158,-1.2997
7079.0,-4.2011,-5.421,-6.9944,0.6434,0.6158,-1.2997
7083.0,-4.2011,-5.421,-6.9944,0.6434,0.6158,-1.2997
7089.0,-4.2011,-5.421,-6.9944,0.4516,0.8338,-1.2295
7094.0,-4.2011,-5.421,-6.9944,0.4516,0.8338,-1.2295
7099.0,-4.6082,-5.2303,-7.2551,0.4516,0.8338,-1.2295
7104.0,-4.6082,-5.2303,-7.2551,0.4516,0.8338,-1.2295
7109.0,-4.6082,-5.2303,-7.2551,0.4516,0.8338,-1.2295
7114.0,-4.6082,-5.2303,-7.2551,0.4516,0.8338,-1.2295
7119.0,-4.6082,-5.2303,-7.2551,0.3429,0.46,-1.2576
7124.0,-4.6082,-5.2303,-7.2551,0.3429,0.46,-1.2576
7129.0,-4.7854,-3.7145,-8.1223,0.3429,0.46,-1.2576
7134.0,-4.7854,-3.7145,-8.1223,0.3429,0.46,-1.2576
7138.0,-4.7854,-3.7145,-8.1223,0.3429,0.46,-1.2576
7144.0,-4.7854,-3.7145,-8.1223,0.3429,0.46,-1.2576
7149.0,-4.7854,-3.7145,-8.1223,0.2769,0.3678,-1.1702
7154.0,-3.8371,-3.1711,-7.7005,0.2769,0.3678,-1.1702
7159.0,-3.8371,-3.1711,-7.7005,0.2769,0.3678,-1.1702
7164.0,-3.8371,-3.1711,-7.7005,0.2769,0.3678,-1.1702
7169.0,-3.8371,-3.1711,-7.7005,0.2769,0.3678,-1.1702
7174.0,-3.8371,-3.1711,-7.7005,0.2769,0.3678,-1.1702
7179.0,-5.7193,-3.8623,-9.1981,0.2054,0.438,-1.1458
7184.0,-5.7193,-3.8623,-9.1981,0.2054,0.438,-1.1458
7189.0,-5.7193,-3.8623,-9.1981,0.2054,0.438,-1.1458
7194.0,-5.7193,-3.8623,-9.1981,0.2054,0.438,-1.1458
7199.0,-5.7193,-3.8623,-9.1981,0.2054,0.438,-1.1458
7204.0,-5.7193,-3.8623,-9.1981,0.2054,0.438,-1.1458
7209.0,-5.0296,-3.3618,-9.4351,0.1089,0.3067,-1.0492
7214.0,-5.0296,-3.3618,-9.4351,0.1089,0.3067,-1.0492
7220.0,-5.0296,-3.3618,-9.4351,0.1089,0.3067,-1.0492
7224.0,-5.0296,-3.3618,-9.4351,0.1089,0.3067,-1.0492
7230.0,-5.0296,-3.3618,-9.4351,0.1089,0.3067,-1.0492
7234.0,-4.8812,-2.7087,-9.4208,0.1089,0.3067,-1.0492
7239.0,-4.8812,-2.7087,-9.4208,0.1089,0.3067,-1.0492
7245.0,-4.8812,-2.7087,-9.4208,-0.0499,0.2065,-0.9576
7249.0,-4.8812,-2.7087,-9.4208,-0.0499,0.2065,-0.9576
7255.0,-4.8812,-2.7087,-9.4208,-0.0499,0.2065,-0.9576
7259.0,-4.8812,-2.7087,-9.4208,-0.0499,0.2065,-0.9576
7264.0,-5.7193,-2.213,-9.3782,-0.0499,0.2065,-0.9576
7270.0,-5.7193,-2.213,-9.3782,-0.0499,0.2065,-0.9576
7275.0,-5.7193,-2.213,-9.3782,-0.0725,0.0397,-0.7994
7279.0,-5.7193,-2.213,-9.3782,-0.0725,0.0397,-0.7994
7285.0,-5.7193,-2.213,-9.3782,-0.0725,0.0397,-0.7994
7289.0,-7.3668,-2.4179,-9.6057,-0.0725,0.0397,-0.7994
7294.0,-7.3668,-2.4179,-9.6057,-0.0725,0.0397,-0.7994
7299.0,-7.3668,-2.4179,-9.6057,-0.0725,0.0397,-0.7994
7304.0,-7.3668,-2.4179,-9.6057,-0.0071,0.0935,-0.4634
7309.0,-7.3668,-2.4179,-9.6057,-0.0071,0.0935,-0.4634
7315.0,-7.1752,-2.7945,-10.6198,-0.0071,0.0935,-0.4634
7320.0,-7.1752,-2.7945,-10.6198,-0.0071,0.0935,-0.4634
7325.0,-7.1752,-2.7945,-10.6198,-0.0071,0.0935,-0.4634
7329.0,-7.1752,-2.7945,-10.6198,-0.0071,0.0935,-0.4634
7334.0,-7.1752,-2.7945,-10.6198,0.0191,-0.1466,0.0656
7340.0,-7.0842,-2.6563,-10.5819,0.0191,-0.1466,0.0656
7344.0,-7.0842,-2.6563,-10.5819,0.0191,-0.1466,0.0656
7350.0,-7.0842,-2.6563,-10.5819,0.0191,-0.1466,0.0656
7354.0,-7.0842,-2.6563,-10.5819,0.0191,-0.1466,0.0656
7359.0,-7.0842,-2.6563,-10.5819,0.0191,-0.1466,0.0656
7364.0,-7.0842,-2.6563,-10.5819,-0.0132,-0.2529,0.4529
7369.0,-6.7442,-2.804,-10.4966,-0.0132,-0.2529,0.4529
7374.0,-6.7442,-2.804,-10.4966,-0.0132,-0.2529,0.4529
7379.0,-6.7442,-2.804,-10.4966,-0.0132,-0.2529,0.4529
7385.0,-6.7442,-2.804,-10.4966,-0.0132,-0.2529,0.4529
7389.0,-6.7442,-2.804,-10.4966,-0.0132,-0.2529,0.4529
7394.0,-6.7442,-2.804,-10.4966,-0.0853,-0.3402,0.8212
7400.0,-5.9731,-3.3856,-10.9705,-0.0853,-0.3402,0.8212
7404.0,-5.9731,-3.3856,-10.9705,-0.0853,-0.3402,0.8212
7409.0,-5.9731,-3.3856,-10.9705,-0.0853,-0.3402,0.8212
7414.0,-5.9731,-3.3856,-10.9705,-0.0853,-0.3402,0.8212
7419.0,-5.9731,-3.3856,-10.9705,-0.0853,-0.3402,0.8212
7424.0,-5.3792,-3.2378,-9.7004,-0.3199,-0.2981,1.0295
7428.0,-5.3792,-3.2378,-9.7004,-0.3199,-0.2981,1.0295
7434.0,-5.3792,-3.2378,-9.7004,-0.3199,-0.2981,1.0295
7439.0,-5.3792,-3.2378,-9.7004,-0.3199,-0.2981,1.0295
7444.0,-5.3792,-3.2378,-9.7004,-0.3199,-0.2981,1.0295
7450.0,-5.2691,-3.2617,-9.1365,-0.3199,-0.2981,1.0295
7454.0,-5.2691,-3.2617,-9.1365,-0.3199,-0.2981,1.0295
7459.0,-5.2691,-3.2617,-9.1365,-0.5282,-0.2651,1.1395
7464.0,-5.2691,-3.2617,-9.1365,-0.5282,-0.2651,1.1395
7470.0,-5.2691,-3.2617,-9.1365,-0.5282,-0.2651,1.1395
7475.0,-5.2691,-3.2617,-9.1365,-0.5282,-0.2651,1.1395
7479.0,-5.4798,-3.2283,-7.8996,-0.5282,-0.2651,1.1395
7484.0,-5.4798,-3.2283,-7.8996,-0.5282,-0.2651,1.1395
7489.0,-5.4798,-3.2283,-7.8996,-0.5025,-0.3836,1.3099
7494.0,-5.4798,-3.2283,-7.8996,-0.5025,-0.3836,1.3099
7499.0,-5.4798,-3.2283,-7.8996,-0.5025,-0.3836,1.3099
7504.0,-5.4798,-3.2283,-7.8996,-0.5025,-0.3836,1.3099
7509.0,-6.1024,-3.4094,-7.5489,-0.5025,-0.3836,1.3099
7514.0,-6.1024,-3.4094,-7.5489,-0.5025,-0.3836,1.3099
7519.0,-6.1024,-3.4094,-7.5489,-0.3541,-0.4655,1.5732
7524.0,-6.1024,-3.4094,-7.5489,-0.3541,-0.4655,1.5732
7529.0,-6.1024,-3.4094,-7.5489,-0.3541,-0.4655,1.5732
7534.0,-7.0698,-4.1197,-6.6295,-0.3541,-0.4655,1.5732
7539.0,-7.0698,-4.1197,-6.6295,-0.3541,-0.4655,1.5732
7544.0,-7.0698,-4.1197,-6.6295,-0.3541,-0.4655,1.5732
7549.0,-7.0698,-4.1197,-6.6295,-0.0749,-0.5785,1.7852
7553.0,-7.0698,-4.1197,-6.6295,-0.0749,-0.5785,1.7852
7559.0,-7.0698,-4.1197,-6.6295,-0.0749,-0.5785,1.7852
7564.0,-5.8486,-5.1541,-6.1793,-0.0749,-0.5785,1.7852
7569.0,-5.8486,-5.1541,-6.1793,-0.0749,-0.5785,1.7852
7574.0,-5.8486,-5.1541,-6.1793,-0.0749,-0.5785,1.7852
7579.0,-5.8486,-5.1541,-6.1793,-0.0749,-0.5785,1.7852
7587.0,-4.1053,-5.7023,-6.2788,-0.1305,-0.7165,1.743
7589.0,-4.1053,-5.7023,-6.2788,-0.1305,-0.7165,1.743
7594.0,-4.1053,-5.7023,-6.2788,-0.1305,-0.7165,1.743
7599.0,-4.1053,-5.7023,-6.2788,-0.1305,-0.7165,1.743
7604.0,-4.1053,-5.7023,-6.2788,-0.1305,-0.7165,1.743
7609.0,-4.1053,-5.7023,-6.2788,-0.1305,-0.7165,1.743
7614.0,-4.1053,-5.7023,-6.2788,-0.3975,-0.8192,1.6245
7619.0,-3.2049,-5.8691,-6.9376,-0.3975,-0.8192,1.6245
7624.0,-3.2049,-5.8691,-6.9376,-0.3975,-0.8192,1.6245
7630.0,-3.2049,-5.8691,-6.9376,-0.3975,-0.8192,1.6245
7634.0,-3.2049,-5.8691,-6.9376,-0.3975,-0.8192,1.6245
7639.0,-3.2049,-5.8691,-6.9376,-0.3975,-0.8192,1.6245
7644.0,-2.8697,-6.0169,-6.4352,-0.6766,-0.9743,1.5036
7649.0,-2.8697,-6.0169,-6.4352,-0.6766,-0.9743,1.5036
7654.0,-2.8697,-6.0169,-6.4352,-0.6766,-0.9743,1.5036
7658.0,-2.8697,-6.0169,-6.4352,-0.6766,-0.9743,1.5036
7664.0,-2.8697,-6.0169,-6.4352,-0.6766,-0.9743,1.5036
7669.0,-2.6829,-6.3744,-5.7718,-0.6766,-0.9743,1.5036
7674.0,-2.6829,-6.3744,-5.7718,-1.0157,-0.9597,1.2177
7679.0,-2.6829,-6.3744,-5.7718,-1.0157,-0.9597,1.2177
7684.0,-2.6829,-6.3744,-5.7718,-1.0157,-0.9597,1.2177
7690.0,-2.6829,-6.3744,-5.7718,-1.0157,-0.9597,1.2177
7694.0,-2.6829,-6.3744,-5.7718,-1.0157,-0.9597,1.2177
7700.0,-3.0325,-6.8082,-5.2268,-1.0157,-0.9597,1.2177
7705.0,-3.0325,-6.8082,-5.2268,-1.3064,-0.959,1.032
7709.0,-3.0325,-6.8082,-5.2268,-1.3064,-0.959,1.032
7714.0,-3.0325,-6.8082,-5.2268,-1.3064,-0.959,1.032
7719.0,-3.0325,-6.8082,-5.2268,-1.3064,-0.959,1.032
7724.0,-3.4444,-6.6652,-4.7055,-1.3064,-0.959,1.032
7729.0,-3.4444,-6.6652,-4.7055,-1.3064,-0.959,1.032
7734.0,-3.4444,-6.6652,-4.7055,-1.3064,-0.959,1.032
7739.0,-3.4444,-6.6652,-4.7055,-1.3779,-1.0507,0.8982
7744.0,-3.4444,-6.6652,-4.7055,-1.3779,-1.0507,0.8982
7749.0,-3.4444,-6.6652,-4.7055,-1.3779,-1.0507,0.8982
7754.0,-3.9664,-6.4221,-3.5586,-1.3779,-1.0507,0.8982
7759.0,-3.9664,-6.4221,-3.5586,-1.3779,-1.0507,0.8982
7764.0,-3.9664,-6.4221,-3.5586,-1.3779,-1.0507,0.8982
7769.0,-3.9664,-6.4221,-3.5586,-1.4213,-1.1881,1.0118
7774.0,-3.9664,-6.4221,-3.5586,-1.4213,-1.1881,1.0118
7779.0,-3.9664,-6.4221,-3.5586,-1.4213,-1.1881,1.0118
7784.0,-4.5651,-6.5793,-2.9473,-1.4213,-1.1881,1.0118
7789.0,-4.5651,-6.5793,-2.9473,-1.4213,-1.1881,1.0118
7795.0,-4.5651,-6.5793,-2.9473,-1.4213,-1.1881,1.0118
7799.0,-4.5651,-6.5793,-2.9473,-1.428,-1.1142,1.0161
7804.0,-4.5651,-6.5793,-2.9473,-1.428,-1.1142,1.0161
7810.0,-4.3783,-6.9369,-2.0753,-1.428,-1.1142,1.0161
7813.0,-4.3783,-6.9369,-2.0753,-1.428,-1.1142,1.0161
7819.0,-4.3783,-6.9369,-2.0753,-1.428,-1.1142,1.0161
7824.0,-4.3783,-6.9369,-2.0753,-1.428,-1.1142,1.0161
7829.0,-4.3783,-6.9369,-2.0753,-1.4824,-0.992,1.1267
7834.0,-4.3783,-6.9369,-2.0753,-1.4824,-0.992,1.1267
7839.0,-3.9904,-7.0131,-1.5208,-1.4824,-0.992,1.1267
7844.0,-3.9904,-7.0131,-1.5208,-1.4824,-0.992,1.1267
7849.0,-3.9904,-7.0131,-1.5208,-1.4824,-0.992,1.1267
7854.0,-3.9904,-7.0131,-1.5208,-1.4824,-0.992,1.1267
7860.0,-3.9904,-7.0131,-1.5208,-1.5196,-0.6903,1.1615
7864.0,-3.545,-7.0608,-2.7625,-1.5196,-0.6903,1.1615
7869.0,-3.545,-7.0608,-2.7625,-1.5196,-0.6903,1.1615
7874.0,-3.545,-7.0608,-2.7625,-1.5196,-0.6903,1.1615
7879.0,-3.545,-7.0608,-2.7625,-1.5196,-0.6903,1.1615
7884.0,-3.545,-7.0608,-2.7625,-1.5196,-0.6903,1.1615
7889.0,-2.4147,-6.4364,-2.0516,-1.5422,-0.3433,1.1505
7894.0,-2.4147,-6.4364,-2.0516,-1.5422,-0.3433,1.1505
7899.0,-2.4147,-6.4364,-2.0516,-1.5422,-0.3433,1.1505
7904.0,-2.4147,-6.4364,-2.0516,-1.5422,-0.3433,1.1505
7909.0,-2.4147,-6.4364,-2.0516,-1.5422,-0.3433,1.1505
7914.0,-2.4147,-6.4364,-2.0516,-1.5422,-0.3433,1.1505
7919.0,-2.5728,-6.6175,-2.9094,-1.4445,-0.4355,1.0344
7924.0,-2.5728,-6.6175,-2.9094,-1.4445,-0.4355,1.0344
7929.0,-2.5728,-6.6175,-2.9094,-1.4445,-0.4355,1.0344
7934.0,-2.5728,-6.6175,-2.9094,-1.4445,-0.4355,1.0344
7939.0,-2.5728,-6.6175,-2.9094,-1.4445,-0.4355,1.0344
7944.0,-3.0277,-6.8987,-3.2601,-1.4445,-0.4355,1.0344
7949.0,-3.0277,-6.8987,-3.2601,-0.9827,-0.5846,0.6435
7954.0,-3.0277,-6.8987,-3.2601,-0.9827,-0.5846,0.6435
7959.0,-3.0277,-6.8987,-3.2601,-0.9827,-0.5846,0.6435
7964.0,-3.0277,-6.8987,-3.2601,-0.9827,-0.5846,0.6435
7969.0,-4.4166,-7.4993,-3.4212,-0.9827,-0.5846,0.6435
7974.0,-4.4166,-7.4993,-3.4212,-0.9827,-0.5846,0.6435
7979.0,-4.4166,-7.4993,-3.4212,-0.3541,-0.532,0.3301
7984.0,-4.4166,-7.4993,-3.4212,-0.3541,-0.532,0.3301
7989.0,-4.4166,-7.4993,-3.4212,-0.3541,-0.532,0.3301
7994.0,-4.4166,-7.4993,-3.4212,-0.3541,-0.532,0.3301
7999.0,-6.907,-9.1105,-4.0515,-0.3541,-0.532,0.3301
8004.0,-6.907,-9.1105,-4.0515,-0.3541,-0.532,0.3301
8009.0,-6.907,-9.1105,-4.0515,-0.3541,-0.532,0.3301
8014.0,-6.907,-9.1105,-4.0515,0.4834,-0.0659,-0.1684
8019.0,-6.907,-9.1105,-4.0515,0.4834,-0.0659,-0.1684
8024.0,-9.5602,-10.4405,-5.2836,0.4834,-0.0659,-0.1684
8029.0,-9.5602,-10.4405,-5.2836,0.4834,-0.0659,-0.1684
8034.0,-9.5602,-10.4405,-5.2836,0.4834,-0.0659,-0.1684
8039.0,-9.5602,-10.4405,-5.2836,0.4834,-0.0659,-0.1684
8044.0,-9.5602,-10.4405,-5.2836,1.1602,-0.0739,-0.9265
8049.0,-8.9424,-11.227,-3.2316,1.1602,-0.0739,-0.9265
8054.0,-8.9424,-11.227,-3.2316,1.1602,-0.0739,-0.9265
8059.0,-8.9424,-11.227,-3.2316,1.1602,-0.0739,-0.9265
8064.0,-8.9424,-11.227,-3.2316,1.1602,-0.0739,-0.9265
8069.0,-8.9424,-11.227,-3.2316,1.1602,-0.0739,-0.9265
8074.0,-8.9424,-11.227,-3.2316,1.4351,-0.0928,-1.7658
8079.0,-5.2308,-9.3346,-4.6818,1.4351,-0.0928,-1.7658
8084.0,-5.2308,-9.3346,-4.6818,1.4351,-0.0928,-1.7658
8089.0,-5.2308,-9.3346,-4.6818,1.4351,-0.0928,-1.7658
8094.0,-5.2308,-9.3346,-4.6818,1.4351,-0.0928,-1.7658
8099.0,-5.2308,-9.3346,-4.6818,1.4351,-0.0928,-1.7658
8104.0,-0.5373,-6.4554,-3.1558,0.8597,0.6866,-0.7951
8109.0,-0.5373,-6.4554,-3.1558,0.8597,0.6866,-0.7951
8114.0,-0.5373,-6.4554,-3.1558,0.8597,0.6866,-0.7951
8119.0,-0.5373,-6.4554,-3.1558,0.8597,0.6866,-0.7951
8124.0,-0.5373,-6.4554,-3.1558,0.8597,0.6866,-0.7951
8129.0,-0.5373,-6.4554,-3.1558,0.8597,0.6866,-0.7951
8134.0,0.4828,-5.7023,-2.0042,0.7955,1.9304,-0.6424
8139.0,0.4828,-5.7023,-2.0042,0.7955,1.9304,-0.6424
8144.0,0.4828,-5.7023,-2.0042,0.7955,1.9304,-0.6424
8149.0,0.4828,-5.7023,-2.0042,0.7955,1.9304,-0.6424
8154.0,0.4828,-5.7023,-2.0042,0.7955,1.9304,-0.6424
8159.0,-0.2165,-4.706,-6.2362,0.7955,1.9304,-0.6424
8164.0,-0.2165,-4.706,-6.2362,0.7955,1.9304,-0.6424
8170.0,-0.2165,-4.706,-6.2362,1.2561,0.03,-1.1806
8174.0,-0.2165,-4.706,-6.2362,1.2561,0.03,-1.1806
8179.0,-0.2165,-4.706,-6.2362,1.2561,0.03,-1.1806
8184.0,-3.1954,-6.8606,2.2941,1.2561,0.03,-1.1806
8189.0,-3.1954,-6.8606,2.2941,1.2561,0.03,-1.1806
8196.0,-3.1954,-6.8606,2.2941,1.2561,0.03,-1.1806
8199.0,-3.1954,-6.8606,2.2941,1.5677,-0.3335,-1.1128
8205.0,-3.1954,-6.8606,2.2941,1.5677,-0.3335,-1.1128
8209.0,-3.1954,-6.8606,2.2941,1.5677,-0.3335,-1.1128
8214.0,-7.3955,-7.1847,-6.4684,1.5677,-0.3335,-1.1128
8219.0,-7.3955,-7.1847,-6.4684,1.5677,-0.3335,-1.1128
8224.0,-7.3955,-7.1847,-6.4684,1.5677,-0.3335,-1.1128
8229.0,-7.3955,-7.1847,-6.4684,1.5677,-0.3335,-1.1128
8234.0,-7.3955,-7.1847,-6.4684,1.7705,1.0006,-1.4854
8239.0,-5.4798,-6.2791,0.5596,1.7705,1.0006,-1.4854
8244.0,-5.4798,-6.2791,0.5596,1.7705,1.0006,-1.4854
8249.0,-5.4798,-6.2791,0.5596,1.7705,1.0006,-1.4854
8254.0,-5.4798,-6.2791,0.5596,1.7705,1.0006,-1.4854
8259.0,-5.4798,-6.2791,0.5596,1.7705,1.0006,-1.4854
8264.0,-5.4798,-6.2791,0.5596,1.4651,1.8913,-1.3351
8269.0,-5.6043,-5.7547,-6.004,1.4651,1.8913,-1.3351
8274.0,-5.6043,-5.7547,-6.004,1.4651,1.8913,-1.3351
8279.0,-5.6043,-5.7547,-6.004,1.4651,1.8913,-1.3351
8284.0,-5.6043,-5.7547,-6.004,1.4651,1.8913,-1.3351
8289.0,-5.6043,-5.7547,-6.004,1.4651,1.8913,-1.3351
8294.0,-2.7979,-7.2276,-3.8998,0.9336,1.4032,-0.9259
8299.0,-2.7979,-7.2276,-3.8998,0.9336,1.4032,-0.9259
8304.0,-2.7979,-7.2276,-3.8998,0.9336,1.4032,-0.9259
8310.0,-2.7979,-7.2276,-3.8998,0.9336,1.4032,-0.9259
8314.0,-2.7979,-7.2276,-3.8998,0.9336,1.4032,-0.9259
8319.0,-2.7979,-7.2276,-3.8998,0.9336,1.4032,-0.9259
8324.0,-3.8036,-7.5756,-6.2552,0.9336,1.4032,-0.9259
8329.0,-3.8036,-7.5756,-6.2552,1.0008,0.3323,-1.2325
8334.0,-3.8036,-7.5756,-6.2552,1.0008,0.3323,-1.2325
8338.0,-3.8036,-7.5756,-6.2552,1.0008,0.3323,-1.2325
8344.0,-3.8036,-7.5756,-6.2552,1.0008,0.3323,-1.2325
8349.0,-5.3409,-5.5354,-4.7434,1.0008,0.3323,-1.2325
8354.0,-5.3409,-5.5354,-4.7434,1.0008,0.3323,-1.2325
8359.0,-5.3409,-5.5354,-4.7434,1.0417,0.5229,-1.4127
8364.0,-5.3409,-5.5354,-4.7434,1.0417,0.5229,-1.4127
8369.0,-5.3409,-5.5354,-4.7434,1.0417,0.5229,-1.4127
8374.0,-5.5133,-4.1102,-6.1082,1.0417,0.5229,-1.4127
8379.0,-5.5133,-4.1102,-6.1082,1.0417,0.5229,-1.4127
8384.0,-5.5133,-4.1102,-6.1082,1.0417,0.5229,-1.4127
8389.0,-5.5133,-4.1102,-6.1082,0.795,0.6946,-1.249
8394.0,-5.5133,-4.1102,-6.1082,0.795,0.6946,-1.249
8399.0,-5.5133,-4.1102,-6.1082,0.795,0.6946,-1.249
8404.0,-5.8294,-5.2065,-6.6532,0.795,0.6946,-1.249
8409.0,-5.8294,-5.2065,-6.6532,0.795,0.6946,-1.249
8414.0,-5.8294,-5.2065,-6.6532,0.795,0.6946,-1.249
8419.0,-5.8294,-5.2065,-6.6532,0.7913,0.6347,-1.172
8424.0,-5.8294,-5.2065,-6.6532,0.7913,0.6347,-1.172
8429.0,-4.8812,-5.9978,-5.9424,0.7913,0.6347,-1.172
8434.0,-4.8812,-5.9978,-5.9424,0.7913,0.6347,-1.172
8439.0,-4.8812,-5.9978,-5.9424,0.7913,0.6347,-1.172
8444.0,-4.8812,-5.9978,-5.9424,0.7913,0.6347,-1.172
8449.0,-4.8812,-5.9978,-5.9424,0.6166,0.8846,-1.293
8454.0,-3.5929,-4.4295,-7.8475,0.6166,0.8846,-1.293
8459.0,-3.5929,-4.4295,-7.8475,0.6166,0.8846,-1.293
8464.0,-3.5929,-4.4295,-7.8475,0.6166,0.8846,-1.293
8469.0,-3.5929,-4.4295,-7.8475,0.6166,0.8846,-1.293
8475.0,-3.5929,-4.4295,-7.8475,0.6166,0.8846,-1.293
8479.0,-3.5929,-4.4295,-7.8475,0.3148,0.3213,-1.3302
8484.0,-4.1532,-3.1902,-7.7527,0.3148,0.3213,-1.3302
8489.0,-4.1532,-3.1902,-7.7527,0.3148,0.3213,-1.3302
8494.0,-4.1532,-3.1902,-7.7527,0.3148,0.3213,-1.3302
8499.0,-4.1532,-3.1902,-7.7527,0.3148,0.3213,-1.3302
8504.0,-4.1532,-3.1902,-7.7527,0.3148,0.3213,-1.3302
8509.0,-5.59,-3.4905,-7.6295,0.2977,0.5645,-1.3693
8514.0,-5.59,-3.4905,-7.6295,0.2977,0.5645,-1.3693
8519.0,-5.59,-3.4905,-7.6295,0.2977,0.5645,-1.3693
8524.0,-5.59,-3.4905,-7.6295,0.2977,0.5645,-1.3693
8529.0,-5.59,-3.4905,-7.6295,0.2977,0.5645,-1.3693
8534.0,-5.0775,-3.2521,-7.8759,0.2977,0.5645,-1.3693
8539.0,-5.0775,-3.2521,-7.8759,0.0986,0.6628,-1.2124
8544.0,-5.0775,-3.2521,-7.8759,0.0986,0.6628,-1.2124
8549.0,-5.0775,-3.2521,-7.8759,0.0986,0.6628,-1.2124
8554.0,-5.0775,-3.2521,-7.8759,0.0986,0.6628,-1.2124
8559.0,-5.1254,-2.8326,-8.6105,0.0986,0.6628,-1.2124
8564.0,-5.1254,-2.8326,-8.6105,0.0986,0.6628,-1.2124
8569.0,-5.1254,-2.8326,-8.6105,-0.0767,0.4649,-1.15
8574.0,-5.1254,-2.8326,-8.6105,-0.0767,0.4649,-1.15
8580.0,-5.1254,-2.8326,-8.6105,-0.0767,0.4649,-1.15
8584.0,-5.1254,-2.8326,-8.6105,-0.0767,0.4649,-1.15
8589.0,-6.0402,-2.9423,-9.473,-0.0767,0.4649,-1.15
8594.0,-6.0402,-2.9423,-9.473,-0.0767,0.4649,-1.15
8599.0,-6.0402,-2.9423,-9.473,8.0E-4,0.2566,-0.9118
8604.0,-6.0402,-2.9423,-9.473,8.0E-4,0.2566,-0.9118
8610.0,-6.0402,-2.9423,-9.473,8.0E-4,0.2566,-0.9118
8614.0,-7.1896,-2.8326,-10.0227,8.0E-4,0.2566,-0.9118
8619.0,-7.1896,-2.8326,-10.0227,8.0E-4,0.2566,-0.9118
8625.0,-7.1896,-2.8326,-10.0227,8.0E-4,0.2566,-0.9118
8629.0,-7.1896,-2.8326,-10.0227,0.0589,-0.0727,-0.5624
8634.0,-7.1896,-2.8326,-10.0227,0.0589,-0.0727,-0.5624
8639.0,-7.544,-2.8183,-10.3923,0.0589,-0.0727,-0.5624
8644.0,-7.544,-2.8183,-10.3923,0.0589,-0.0727,-0.5624
8649.0,-7.544,-2.8183,-10.3923,0.0589,-0.0727,-0.5624
8654.0,-7.544,-2.8183,-10.3923,0.0589,-0.0727,-0.5624
8659.0,-7.544,-2.8183,-10.3923,0.1175,-0.0714,-0.1989
8664.0,-7.544,-2.8183,-10.3923,0.1175,-0.0714,-0.1989
8670.0,-7.5344,-3.4571,-10.3307,0.1175,-0.0714,-0.1989
8674.0,-7.5344,-3.4571,-10.3307,0.1175,-0.0714,-0.1989
8679.0,-7.5344,-3.4571,-10.3307,0.1175,-0.0714,-0.1989
8684.0,-7.5344,-3.4571,-10.3307,0.1175,-0.0714,-0.1989
8689.0,-7.5344,-3.4571,-10.3307,0.0857,-0.2706,0.3002
8694.0,-7.9894,-3.8384,-10.5061,0.0857,-0.2706,0.3002
8699.0,-7.9894,-3.8384,-10.5061,0.0857,-0.2706,0.3002
8704.0,-7.9894,-3.8384,-10.5061,0.0857,-0.2706,0.3002
8709.0,-7.9894,-3.8384,-10.5061,0.0857,-0.2706,0.3002
8714.0,-7.9894,-3.8384,-10.5061,0.0857,-0.2706,0.3002
8719.0,-6.9645,-3.9242,-10.454,0.0857,-0.2706,0.3002
8724.0,-6.9645,-3.9242,-10.454,0.0198,-0.2407,0.7119
8729.0,-6.9645,-3.9242,-10.454,0.0198,-0.2407,0.7119
8734.0,-6.9645,-3.9242,-10.454,0.0198,-0.2407,0.7119
8739.0,-6.9645,-3.9242,-10.454,0.0198,-0.2407,0.7119
8744.0,-6.9645,-3.9242,-10.454,0.0198,-0.2407,0.7119
8749.0,-5.9013,-4.3151,-10.2976,0.0198,-0.2407,0.7119
8754.0,-5.9013,-4.3151,-10.2976,-0.2289,-0.138,0.9825
8759.0,-5.9013,-4.3151,-10.2976,-0.2289,-0.138,0.9825
8764.0,-5.9013,-4.3151,-10.2976,-0.2289,-0.138,0.9825
8769.0,-5.9013,-4.3151,-10.2976,-0.2289,-0.138,0.9825
8774.0,-5.6714,-4.6107,-10.1601,-0.2289,-0.138,0.9825
8779.0,-5.6714,-4.6107,-10.1601,-0.2289,-0.138,0.9825
8785.0,-5.6714,-4.6107,-10.1601,-0.475,-0.452,1.1376
8790.0,-5.6714,-4.6107,-10.1601,-0.475,-0.452,1.1376
8795.0,-5.6714,-4.6107,-10.1601,-0.475,-0.452,1.1376
8799.0,-5.6714,-4.6107,-10.1601,-0.475,-0.452,1.1376
8805.0,-5.5517,-4.1912,-8.7811,-0.475,-0.452,1.1376
8809.0,-5.5517,-4.1912,-8.7811,-0.475,-0.452,1.1376
8814.0,-5.5517,-4.1912,-8.7811,-0.475,-0.452,1.1376
8819.0,-5.5517,-4.1912,-8.7811,-0.6919,-0.4716,1.3032
8824.0,-5.5517,-4.1912,-8.7811,-0.6919,-0.4716,1.3032
8829.0,-5.5517,-4.1912,-8.7811,-0.6919,-0.4716,1.3032
8834.0,-5.4559,-4.2293,-8.1508,-0.6919,-0.4716,1.3032
8839.0,-5.4559,-4.2293,-8.1508,-0.6919,-0.4716,1.3032
8844.0,-5.4559,-4.2293,-8.1508,-0.6919,-0.4716,1.3032
8849.0,-5.4559,-4.2293,-8.1508,-0.8403,-0.5204,1.379
8854.0,-5.4559,-4.2293,-8.1508,-0.8403,-0.5204,1.379
8859.0,-4.7231,-4.6107,-7.4826,-0.8403,-0.5204,1.379
8865.0,-4.7231,-4.6107,-7.4826,-0.8403,-0.5204,1.379
8870.0,-4.7231,-4.6107,-7.4826,-0.8403,-0.5204,1.379
8875.0,-4.7231,-4.6107,-7.4826,-0.8403,-0.5204,1.379
8880.0,-4.7231,-4.6107,-7.4826,-0.9876,-0.5327,1.3936
8885.0,-4.7231,-4.6107,-7.4826,-0.9876,-0.5327,1.3936
8888.0,-3.9952,-4.8395,-6.9613,-0.9876,-0.5327,1.3936
8894.0,-3.9952,-4.8395,-6.9613,-0.9876,-0.5327,1.3936
8899.0,-3.9952,-4.8395,-6.9613,-0.9876,-0.5327,1.3936
8904.0,-3.9952,-4.8395,-6.9613,-0.9876,-0.5327,1.3936
8909.0,-3.9952,-4.8395,-6.9613,-1.0859,-0.7269,1.4254
8914.0,-3.8563,-5.1207,-6.3215,-1.0859,-0.7269,1.4254
8919.0,-3.8563,-5.1207,-6.3215,-1.0859,-0.7269,1.4254
8924.0,-3.8563,-5.1207,-6.3215,-1.0859,-0.7269,1.4254
8929.0,-3.8563,-5.1207,-6.3215,-1.0859,-0.7269,1.4254
8934.0,-3.8563,-5.1207,-6.3215,-1.0859,-0.7269,1.4254
8939.0,-4.4358,-5.3734,-5.2742,-1.0957,-0.8857,1.4339
8944.0,-4.4358,-5.3734,-5.2742,-1.0957,-0.8857,1.4339
8949.0,-4.4358,-5.3734,-5.2742,-1.0957,-0.8857,1.4339
8955.0,-4.4358,-5.3734,-5.2742,-1.0957,-0.8857,1.4339
8959.0,-4.4358,-5.3734,-5.2742,-1.0957,-0.8857,1.4339
8964.0,-4.4358,-5.3734,-5.2742,-1.0957,-0.8857,1.4339
8969.0,-4.9003,-5.7595,-4.6628,-1.0957,-0.8857,1.4339
8974.0,-4.9003,-5.7595,-4.6628,-1.0383,-0.8863,1.3154
8980.0,-4.9003,-5.7595,-4.6628,-1.0383,-0.8863,1.3154
8984.0,-4.9003,-5.7595,-4.6628,-1.0383,-0.8863,1.3154
8989.0,-4.9003,-5.7595,-4.6628,-1.0383,-0.8863,1.3154
8995.0,-4.7327,-6.2028,-4.3643,-1.0383,-0.8863,1.3154
8999.0,-4.7327,-6.2028,-4.3643,-1.103,-1.0018,1.3221
9005.0,-4.7327,-6.2028,-4.3643,-1.103,-1.0018,1.3221
9009.0,-4.7327,-6.2028,-4.3643,-1.103,-1.0018,1.3221
9014.0,-4.7327,-6.2028,-4.3643,-1.103,-1.0018,1.3221
9019.0,-4.3543,-6.5698,-3.7482,-1.103,-1.0018,1.3221
9024.0,-4.3543,-6.5698,-3.7482,-1.103,-1.0018,1.3221
9030.0,-4.3543,-6.5698,-3.7482,-1.103,-1.0018,1.3221
9034.0,-4.3543,-6.5698,-3.7482,-1.1452,-1.0672,1.225
9039.0,-4.3543,-6.5698,-3.7482,-1.1452,-1.0672,1.225
9045.0,-4.3543,-6.5698,-3.7482,-1.1452,-1.0672,1.225
9049.0,-4.1388,-6.5698,-3.6344,-1.1452,-1.0672,1.225
9054.0,-4.1388,-6.5698,-3.6344,-1.1452,-1.0672,1.225
9059.0,-4.1388,-6.5698,-3.6344,-1.1452,-1.0672,1.225
9064.0,-4.1388,-6.5698,-3.6344,-1.2502,-0.8833,1.1664
9069.0,-4.1388,-6.5698,-3.6344,-1.2502,-0.8833,1.1664
9074.0,-4.225,-6.6556,-2.7056,-1.2502,-0.8833,1.1664
9079.0,-4.225,-6.6556,-2.7056,-1.2502,-0.8833,1.1664
9084.0,-4.225,-6.6556,-2.7056,-1.2502,-0.8833,1.1664
9089.0,-4.225,-6.6556,-2.7056,-1.2502,-0.8833,1.1664
9095.0,-4.225,-6.6556,-2.7056,-1.3382,-0.6829,1.2623
9099.0,-3.7749,-6.6366,-3.2458,-1.3382,-0.6829,1.2623
9104.0,-3.7749,-6.6366,-3.2458,-1.3382,-0.6829,1.2623
9109.0,-3.7749,-6.6366,-3.2458,-1.3382,-0.6829,1.2623
9113.0,-3.7749,-6.6366,-3.2458,-1.3382,-0.6829,1.2623
9119.0,-3.7749,-6.6366,-3.2458,-1.3382,-0.6829,1.2623
9124.0,-3.7749,-6.6366,-3.2458,-1.4237,-0.7788,1.3563
9129.0,-3.2001,-6.5555,-2.0184,-1.4237,-0.7788,1.3563
9134.0,-3.2001,-6.5555,-2.0184,-1.4237,-0.7788,1.3563
9139.0,-3.2001,-6.5555,-2.0184,-1.4237,-0.7788,1.3563
9144.0,-3.2001,-6.5555,-2.0184,-1.4237,-0.7788,1.3563
9149.0,-3.2001,-6.5555,-2.0184,-1.4237,-0.7788,1.3563
9154.0,-3.1379,-6.4983,-1.663,-1.5318,-0.7037,1.5249
9160.0,-3.1379,-6.4983,-1.663,-1.5318,-0.7037,1.5249
9164.0,-3.1379,-6.4983,-1.663,-1.5318,-0.7037,1.5249
9169.0,-3.1379,-6.4983,-1.663,-1.5318,-0.7037,1.5249
9174.0,-3.1379,-6.4983,-1.663,-1.5318,-0.7037,1.5249
9179.0,-3.1379,-6.4983,-1.663,-1.5318,-0.7037,1.5249
9184.0,-3.2049,-6.9083,-2.2601,-1.4805,-0.8369,1.371
9189.0,-3.2049,-6.9083,-2.2601,-1.4805,-0.8369,1.371
9194.0,-3.2049,-6.9083,-2.2601,-1.4805,-0.8369,1.371
9199.0,-3.2049,-6.9083,-2.2601,-1.4805,-0.8369,1.371
9204.0,-3.2049,-6.9083,-2.2601,-1.4805,-0.8369,1.371
9209.0,-3.2049,-6.9083,-2.2601,-1.4805,-0.8369,1.371
9214.0,-2.8649,-7.0656,-2.1369,-1.4805,-0.8369,1.371
9219.0,-2.8649,-7.0656,-2.1369,-1.3846,-0.7257,1.2006
9224.0,-2.8649,-7.0656,-2.1369,-1.3846,-0.7257,1.2006
9229.0,-2.8649,-7.0656,-2.1369,-1.3846,-0.7257,1.2006
9234.0,-2.8649,-7.0656,-2.1369,-1.3846,-0.7257,1.2006
9239.0,-3.4492,-7.18,-2.4497,-1.3846,-0.7257,1.2006
9244.0,-3.4492,-7.18,-2.4497,-1.3846,-0.7257,1.2006
9250.0,-3.4492,-7.18,-2.4497,-1.15,-0.4819,0.963
9254.0,-3.4492,-7.18,-2.4497,-1.15,-0.4819,0.963
9259.0,-3.4492,-7.18,-2.4497,-1.15,-0.4819,0.963
9264.0,-4.0766,-7.3087,-2.298,-1.15,-0.4819,0.963
9269.0,-4.0766,-7.3087,-2.298,-1.15,-0.4819,0.963
9274.0,-4.0766,-7.3087,-2.298,-1.15,-0.4819,0.963
9279.0,-4.0766,-7.3087,-2.298,-0.7182,-0.1319,0.8945
9284.0,-4.0766,-7.3087,-2.298,-0.7182,-0.1319,0.8945
9289.0,-5.3649,-8.2477,-3.952,-0.7182,-0.1319,0.8945
9294.0,-5.3649,-8.2477,-3.952,-0.7182,-0.1319,0.8945
9299.0,-5.3649,-8.2477,-3.952,-0.7182,-0.1319,0.8945
9304.0,-5.3649,-8.2477,-3.952,-0.7182,-0.1319,0.8945
9310.0,-5.3649,-8.2477,-3.952,-0.0102,-0.2419,0.3612
9314.0,-5.3649,-9.735,-4.4306,-0.0102,-0.2419,0.3612
9319.0,-6.452,-9.735,-4.4306,-0.0102,-0.2419,0.3612
9324.0,-6.452,-9.735,-4.4306,-0.0102,-0.2419,0.3612
9330.0,-6.452,-9.735,-4.4306,-0.0102,-0.2419,0.3612
9334.0,-6.452,-9.735,-4.4306,-0.0102,-0.2419,0.3612
9338.0,-6.452,-9.735,-4.4306,0.5836,0.0605,-0.4934
9344.0,-7.6589,-10.9315,-4.1794,0.5836,0.0605,-0.4934
9349.0,-7.6589,-10.9315,-4.1794,0.5836,0.0605,-0.4934
9355.0,-7.6589,-10.9315,-4.1794,0.5836,0.0605,-0.4934
9359.0,-7.6589,-10.9315,-4.1794,0.5836,0.0605,-0.4934
9364.0,-7.6589,-10.9315,-4.1794,0.5836,0.0605,-0.4934
9369.0,-7.1513,-10.7408,-4.9993,1.0851,0.3213,-1.172
9374.0,-7.1513,-10.7408,-4.9993,1.0851,0.3213,-1.172
9379.0,-7.1513,-10.7408,-4.9993,1.0851,0.3213,-1.172
9384.0,-7.1513,-10.7408,-4.9993,1.0851,0.3213,-1.172
9389.0,-7.1513,-10.7408,-4.9993,1.0851,0.3213,-1.172
9394.0,-4.0095,-8.9532,-4.459,1.0851,0.3213,-1.172
9399.0,-4.0095,-8.9532,-4.459,1.3026,-0.3506,-1.4451
9404.0,-4.0095,-8.9532,-4.459,1.3026,-0.3506,-1.4451
9409.0,-4.0095,-8.9532,-4.459,1.3026,-0.3506,-1.4451
9414.0,-4.0095,-8.9532,-4.459,1.3026,-0.3506,-1.4451
9419.0,-4.0095,-8.9532,-4.459,1.3026,-0.3506,-1.4451
9424.0,-0.9492,-7.1561,-2.8667,1.3026,-0.3506,-1.4451
9429.0,-0.9492,-7.1561,-2.8667,1.3026,-0.3506,-1.4451
9435.0,-0.9492,-7.1561,-2.8667,1.0014,0.6976,-0.9747
9439.0,-0.9492,-7.1561,-2.8667,1.0014,0.6976,-0.9747
9444.0,-0.9492,-7.1561,-2.8667,1.0014,0.6976,-0.9747
9449.0,0.0469,-5.85,-2.0611,1.0014,0.6976,-0.9747
9454.0,0.0469,-5.85,-2.0611,1.0014,0.6976,-0.9747
9459.0,0.0469,-5.85,-2.0611,1.0014,0.6976,-0.9747
9464.0,0.0469,-5.85,-2.0611,1.002,1.3513,-0.6161
9469.0,0.0469,-5.85,-2.0611,1.002,1.3513,-0.6161
9475.0,0.0469,-5.85,-2.0611,1.002,1.3513,-0.6161
9479.0,-1.0354,-4.8442,-3.1463,1.002,1.3513,-0.6161
9484.0,-1.0354,-4.8442,-3.1463,1.002,1.3513,-0.6161
9489.0,-1.0354,-4.8442,-3.1463,1.002,1.3513,-0.6161
9494.0,-1.0354,-4.8442,-3.1463,1.247,0.851,-0.9509
9499.0,-1.0354,-4.8442,-3.1463,1.247,0.851,-0.9509
9511.0,-5.7528,-6.3362,1.569,1.247,0.851,-0.9509
9512.0,-5.7528,-6.3362,1.569,1.247,0.851,-0.9509
9514.0,-5.7528,-6.3362,1.569,1.247,0.851,-0.9509
9518.0,-5.7528,-6.3362,1.569,1.247,0.851,-0.9509
9524.0,-5.7528,-6.3362,1.569,1.9489,-0.325,-1.4506
9529.0,-6.9166,-7.4231,-6.2457,1.9489,-0.325,-1.4506
9534.0,-6.9166,-7.4231,-6.2457,1.9489,-0.325,-1.4506
9539.0,-6.9166,-7.4231,-6.2457,1.9489,-0.325,-1.4506
9544.0,-6.9166,-7.4231,-6.2457,1.9489,-0.325,-1.4506
9549.0,-6.9166,-7.4231,-6.2457,1.9489,-0.325,-1.4506
9554.0,-6.9166,-7.4231,-6.2457,2.101,-0.9114,-1.8721
9559.0,-3.9712,-7.6471,0.1663,2.101,-0.9114,-1.8721
9564.0,-3.9712,-7.6471,0.1663,2.101,-0.9114,-1.8721
9569.0,-3.9712,-7.6471,0.1663,2.101,-0.9114,-1.8721
9574.0,-3.9712,-7.6471,0.1663,2.101,-0.9114,-1.8721
9579.0,-3.9712,-7.6471,0.1663,2.101,-0.9114,-1.8721
9584.0,-4.5459,-5.3876,-1.9947,1.4889,2.6304,-0.9698
9589.0,-4.5459,-5.3876,-1.9947,1.4889,2.6304,-0.9698
9594.0,-4.5459,-5.3876,-1.9947,1.4889,2.6304,-0.9698
9599.0,-4.5459,-5.3876,-1.9947,1.4889,2.6304,-0.9698
9604.0,-4.5459,-5.3876,-1.9947,1.4889,2.6304,-0.9698
9610.0,-4.1149,-5.6927,-7.0229,1.4889,2.6304,-0.9698
9615.0,-4.1149,-5.6927,-7.0229,1.3759,0.2389,-1.4201
9620.0,-4.1149,-5.6927,-7.0229,1.3759,0.2389,-1.4201
9625.0,-4.1149,-5.6927,-7.0229,1.3759,0.2389,-1.4201
9629.0,-4.1149,-5.6927,-7.0229,1.3759,0.2389,-1.4201
9634.0,-4.1149,-5.6927,-7.0229,1.3759,0.2389,-1.4201
9640.0,-2.4004,-7.7615,-5.132,1.3759,0.2389,-1.4201
9644.0,-2.4004,-7.7615,-5.132,1.2702,0.4295,-1.1397
9649.0,-2.4004,-7.7615,-5.132,1.2702,0.4295,-1.1397
9654.0,-2.4004,-7.7615,-5.132,1.2702,0.4295,-1.1397
9659.0,-2.4004,-7.7615,-5.132,1.2702,0.4295,-1.1397
9664.0,-2.4004,-7.7615,-5.132,1.2702,0.4295,-1.1397
9669.0,-5.0919,-7.8712,-5.6249,1.2702,0.4295,-1.1397
9674.0,-5.0919,-7.8712,-5.6249,1.2647,0.4234,-1.3822
9679.0,-5.0919,-7.8712,-5.6249,1.2647,0.4234,-1.3822
9684.0,-5.0919,-7.8712,-5.6249,1.2647,0.4234,-1.3822
9689.0,-5.0919,-7.8712,-5.6249,1.2647,0.4234,-1.3822
9694.0,-6.3993,-6.4316,-4.2553,1.2647,0.4234,-1.3822
9699.0,-6.3993,-6.4316,-4.2553,1.2647,0.4234,-1.3822
9704.0,-6.3993,-6.4316,-4.2553,1.0992,0.4655,-1.1219
9709.0,-6.3993,-6.4316,-4.2553,1.0992,0.4655,-1.1219
9714.0,-6.3993,-6.4316,-4.2553,1.0992,0.4655,-1.1219
9719.0,-6.3993,-6.4316,-4.2553,1.0992,0.4655,-1.1219
9724.0,-7.0746,-5.0397,-6.7954,1.0992,0.4655,-1.1219
9729.0,-7.0746,-5.0397,-6.7954,1.0992,0.4655,-1.1219
9734.0,-7.0746,-5.0397,-6.7954,1.0992,0.4655,-1.1219
9739.0,-7.0746,-5.0397,-6.7954,1.0711,0.6707,-1.0743
9744.0,-7.0746,-5.0397,-6.7954,1.0711,0.6707,-1.0743
9750.0,-6.1168,-4.3437,-6.5063,1.0711,0.6707,-1.0743
9754.0,-6.1168,-4.3437,-6.5063,1.0711,0.6707,-1.0743
9759.0,-6.1168,-4.3437,-6.5063,1.0711,0.6707,-1.0743
9764.0,-6.1168,-4.3437,-6.5063,1.0711,0.6707,-1.0743
9769.0,-6.1168,-4.3437,-6.5063,0.8017,1.1167,-1.1391
9774.0,-5.4415,-4.0577,-6.53,0.8017,1.1167,-1.1391
9779.0,-5.4415,-4.0577,-6.53,0.8017,1.1167,-1.1391
9784.0,-5.4415,-4.0577,-6.53,0.8017,1.1167,-1.1391
9789.0,-5.4415,-4.0577,-6.53,0.8017,1.1167,-1.1391
9794.0,-5.4415,-4.0577,-6.53,0.8017,1.1167,-1.1391
9799.0,-5.4415,-4.0577,-6.53,0.5696,0.6512,-1.1317
9804.0,-3.727,-3.1234,-8.2408,0.5696,0.6512,-1.1317
9809.0,-3.727,-3.1234,-8.2408,0.5696,0.6512,-1.1317
9814.0,-3.727,-3.1234,-8.2408,0.5696,0.6512,-1.1317
9819.0,-3.727,-3.1234,-8.2408,0.5696,0.6512,-1.1317
9824.0,-3.727,-3.1234,-8.2408,0.5696,0.6512,-1.1317
9829.0,-5.2164,-3.3141,-8.7384,0.5011,0.2132,-1.1219
9834.0,-5.2164,-3.3141,-8.7384,0.5011,0.2132,-1.1219
9839.0,-5.2164,-3.3141,-8.7384,0.5011,0.2132,-1.1219
9844.0,-5.2164,-3.3141,-8.7384,0.5011,0.2132,-1.1219
9849.0,-5.2164,-3.3141,-8.7384,0.5011,0.2132,-1.1219
9854.0,-6.5718,-3.2712,-7.838,0.5011,0.2132,-1.1219
9858.0,-6.5718,-3.2712,-7.838,0.5011,0.2132,-1.1219
9864.0,-6.5718,-3.2712,-7.838,0.2263,0.5785,-1.2362
9869.0,-6.5718,-3.2712,-7.838,0.2263,0.5785,-1.2362
9874.0,-6.5718,-3.2712,-7.838,0.2263,0.5785,-1.2362
9879.0,-6.5718,-3.2712,-7.838,0.2263,0.5785,-1.2362
9884.0,-7.453,-3.1615,-8.582,0.2263,0.5785,-1.2362
9889.0,-7.453,-3.1615,-8.582,0.2263,0.5785,-1.2362
9894.0,-7.453,-3.1615,-8.582,0.0155,0.435,-0.9454
9900.0,-7.453,-3.1615,-8.582,0.0155,0.435,-0.9454
9905.0,-7.453,-3.1615,-9.9042,0.0155,0.435,-0.9454
9910.0,-8.2959,-3.3904,-9.9042,0.0155,0.435,-0.9454
9915.0,-8.2959,-3.3904,-9.9042,0.0155,0.435,-0.9454
9919.0,-8.2959,-3.3904,-9.9042,0.0155,0.435,-0.9454
9924.0,-8.2959,-3.3904,-9.9042,0.032,0.3769,-0.6503
9929.0,-8.2959,-3.3904,-9.9042,0.032,0.3769,-0.6503
9934.0,-7.9223,-3.4142,-9.8142,0.032,0.3769,-0.6503
9940.0,-7.9223,-3.4142,-9.8142,0.032,0.3769,-0.6503
9944.0,-7.9223,-3.4142,-9.8142,0.032,0.3769,-0.6503
9949.0,-7.9223,-3.4142,-9.8142,0.032,0.3769,-0.6503
9954.0,-7.9223,-3.4142,-9.8142,-0.0578,0.1894,-0.2551
9959.0,-8.2863,-3.3522,-9.2929,-0.0578,0.1894,-0.2551
9965.0,-8.2863,-3.3522,-9.2929,-0.0578,0.1894,-0.2551
9969.0,-8.2863,-3.3522,-9.2929,-0.0578,0.1894,-0.2551
9974.0,-8.2863,-3.3522,-9.2929,-0.0578,0.1894,-0.2551
9979.0,-8.2863,-3.3522,-9.2929,-0.0578,0.1894,-0.2551
9984.0,-7.8026,-3.3761,-9.454,-0.0578,0.1894,-0.2551
9989.0,-7.8026,-3.3761,-9.454,-0.0437,0.0318,0.013
9994.0,-7.8026,-3.3761,-9.454,-0.0437,0.0318,0.013
10000.0,-7.8026,-3.3761,-9.454,-0.0437,0.0318,0.013
10005.0,-7.8026,-3.3761,-9.454,-0.0437,0.0318,0.013
10009.0,-7.8026,-3.3761,-9.454,-0.0437,0.0318,0.013
10014.0,-8.3677,-3.8337,-9.5346,-0.0437,0.0318,0.013
10018.0,-8.3677,-3.8337,-9.5346,-0.0437,0.0318,0.013
10024.0,-8.3677,-3.8337,-9.5346,-0.1439,-0.3384,0.6209
10029.0,-8.3677,-3.8337,-9.5346,-0.1439,-0.3384,0.6209
10034.0,-8.3677,-3.8337,-9.5346,-0.1439,-0.3384,0.6209
10039.0,-7.7068,-3.276,-9.3071,-0.1439,-0.3384,0.6209
10044.0,-7.7068,-3.276,-9.3071,-0.1439,-0.3384,0.6209
10049.0,-7.7068,-3.276,-9.3071,-0.3528,-0.2657,0.9049
10054.0,-7.7068,-3.276,-9.3071,-0.3528,-0.2657,0.9049
10059.0,-7.7068,-3.276,-9.3071,-0.3528,-0.2657,0.9049
10064.0,-7.7068,-3.276,-9.3071,-0.3528,-0.2657,0.9049
10069.0,-7.2183,-3.6907,-9.0986,-0.3528,-0.2657,0.9049
10075.0,-7.2183,-3.6907,-9.0986,-0.3528,-0.2657,0.9049
10079.0,-7.2183,-3.6907,-9.0986,-0.3528,-0.2657,0.9049
10084.0,-7.2183,-3.6907,-9.0986,-0.5294,-0.2547,1.0124
10089.0,-7.2183,-3.6907,-9.0986,-0.5294,-0.2547,1.0124
10094.0,-6.0641,-4.1054,-8.5773,-0.5294,-0.2547,1.0124
10099.0,-6.0641,-4.1054,-8.5773,-0.5294,-0.2547,1.0124
10104.0,-6.0641,-4.1054,-8.5773,-0.5294,-0.2547,1.0124
10109.0,-6.0641,-4.1054,-8.5773,-0.5294,-0.2547,1.0124
10114.0,-6.0641,-4.1054,-8.5773,-0.7853,-0.4881,1.1413
10119.0,-6.0641,-4.1054,-8.5773,-0.7853,-0.4881,1.1413
10124.0,-5.9156,-4.0815,-8.3403,-0.7853,-0.4881,1.1413
10130.0,-5.9156,-4.0815,-8.3403,-0.7853,-0.4881,1.1413
10134.0,-5.9156,-4.0815,-8.3403,-0.7853,-0.4881,1.1413
10139.0,-5.9156,-4.0815,-8.3403,-0.7853,-0.4881,1.1413
10145.0,-5.9156,-4.0815,-8.3403,-0.7853,-0.4881,1.1413
10149.0,-5.2691,-3.7955,-7.1461,-0.9399,-0.5711,1.3734
10154.0,-5.2691,-3.7955,-7.1461,-0.9399,-0.5711,1.3734
10159.0,-5.2691,-3.7955,-7.1461,-0.9399,-0.5711,1.3734
10164.0,-5.2691,-3.7955,-7.1461,-0.9399,-0.5711,1.3734
10169.0,-5.2691,-3.7955,-7.1461,-0.9399,-0.5711,1.3734
10174.0,-5.2691,-3.7955,-7.1461,-0.9399,-0.5711,1.3734
10179.0,-5.2356,-4.7823,-6.5869,-0.971,-0.4636,1.5066
10184.0,-5.2356,-4.7823,-6.5869,-0.971,-0.4636,1.5066
10189.0,-5.2356,-4.7823,-6.5869,-0.971,-0.4636,1.5066
10194.0,-5.2356,-4.7823,-6.5869,-0.971,-0.4636,1.5066
10199.0,-5.2356,-4.7823,-6.5869,-0.971,-0.4636,1.5066
10204.0,-4.9099,-5.5259,-5.8902,-0.971,-0.4636,1.5066
10209.0,-4.9099,-5.5259,-5.8902,-1.0499,-0.617,1.5414
10214.0,-4.9099,-5.5259,-5.8902,-1.0499,-0.617,1.5414
10219.0,-4.9099,-5.5259,-5.8902,-1.0499,-0.617,1.5414
10224.0,-4.9099,-5.5259,-5.8902,-1.0499,-0.617,1.5414
10229.0,-4.7279,-5.7452,-5.3879,-1.0499,-0.617,1.5414
10234.0,-4.7279,-5.7452,-5.3879,-1.0499,-0.617,1.5414
10239.0,-4.7279,-5.7452,-5.3879,-1.0938,-0.9328,1.5854
10244.0,-4.7279,-5.7452,-5.3879,-1.0938,-0.9328,1.5854
10249.0,-4.7279,-5.7452,-5.3879,-1.0938,-0.9328,1.5854
10255.0,-4.7279,-5.7452,-5.3879,-1.0938,-0.9328,1.5854
10259.0,-4.7183,-5.9692,-5.0893,-1.0938,-0.9328,1.5854
10264.0,-4.7183,-5.9692,-5.0893,-1.0938,-0.9328,1.5854
10269.0,-4.7183,-5.9692,-5.0893,-1.0938,-0.9328,1.5854
10273.0,-4.7183,-5.9692,-5.0893,-1.1158,-1.2028,1.484
10279.0,-4.7183,-5.9692,-5.0893,-1.1158,-1.2028,1.484
10284.0,-4.5986,-6.5174,-3.9614,-1.1158,-1.2028,1.484
10289.0,-4.5986,-6.5174,-3.9614,-1.1158,-1.2028,1.484
10294.0,-4.5986,-6.5174,-3.9614,-1.1158,-1.2028,1.484
10299.0,-4.5986,-6.5174,-3.9614,-1.2013,-1.1686,1.4749
10304.0,-4.5986,-6.5174,-3.9614,-1.2013,-1.1686,1.4749
10309.0,-4.1772,-7.0131,-3.7245,-1.2013,-1.1686,1.4749
10314.0,-4.1772,-7.0131,-3.7245,-1.2013,-1.1686,1.4749
10319.0,-4.1772,-7.0131,-3.7245,-1.2013,-1.1686,1.4749
10325.0,-4.1772,-7.0131,-3.7245,-1.2013,-1.1686,1.4749
10330.0,-4.1772,-7.0131,-3.7245,-1.3596,-1.0586,1.302
10334.0,-4.2203,-7.1943,-3.5586,-1.3596,-1.0586,1.302
10339.0,-4.2203,-7.1943,-3.5586,-1.3596,-1.0586,1.302
10344.0,-4.2203,-7.1943,-3.5586,-1.3596,-1.0586,1.302
10349.0,-4.2203,-7.1943,-3.5586,-1.3596,-1.0586,1.302
10354.0,-4.2203,-7.1943,-3.5586,-1.3596,-1.0586,1.302
10359.0,-4.2203,-7.1943,-3.5586,-1.3596,-1.0586,1.302
10364.0,-3.7509,-7.037,-2.336,-1.5251,-0.9157,1.1755
10369.0,-3.7509,-7.037,-2.336,-1.5251,-0.9157,1.1755
10374.0,-3.7509,-7.037,-2.336,-1.5251,-0.9157,1.1755
10379.0,-3.7509,-7.037,-2.336,-1.5251,-0.9157,1.1755
10384.0,-3.7509,-7.037,-2.336,-1.5251,-0.9157,1.1755
10389.0,-3.6599,-6.7176,-2.317,-1.5251,-0.9157,1.1755
10394.0,-3.6599,-6.7176,-2.317,-1.6735,-0.7868,1.0961
10399.0,-3.6599,-6.7176,-2.317,-1.6735,-0.7868,1.0961
10404.0,-3.6599,-6.7176,-2.317,-1.6735,-0.7868,1.0961
10409.0,-3.6599,-6.7176,-2.317,-1.6735,-0.7868,1.0961
10414.0,-3.727,-6.3982,-1.9,-1.6735,-0.7868,1.0961
10419.0,-3.727,-6.3982,-1.9,-1.6735,-0.7868,1.0961
10424.0,-3.727,-6.3982,-1.9,-1.7975,-0.5094,0.98
10429.0,-3.727,-6.3982,-1.9,-1.7975,-0.5094,0.98
10435.0,-3.727,-6.3982,-1.9,-1.7975,-0.5094,0.98
10439.0,-3.727,-6.3982,-1.9,-1.7975,-0.5094,0.98
10444.0,-4.0191,-6.8797,-1.6677,-1.7975,-0.5094,0.98
10449.0,-4.0191,-6.8797,-1.6677,-1.7975,-0.5094,0.98
10454.0,-4.0191,-6.8797,-1.6677,-1.709,-0.4154,1.0485
10460.0,-4.0191,-6.8797,-1.6677,-1.709,-0.4154,1.0485
10464.0,-4.0191,-6.8797,-1.6677,-1.709,-0.4154,1.0485
10469.0,-3.8275,-7.2467,-0.9711,-1.709,-0.4154,1.0485
10474.0,-3.8275,-7.2467,-0.9711,-1.709,-0.4154,1.0485
10479.0,-3.8275,-7.2467,-0.9711,-1.709,-0.4154,1.0485
10484.0,-3.8275,-7.2467,-0.9711,-1.3761,-0.4068,1.0931
10489.0,-3.8275,-7.2467,-0.9711,-1.3761,-0.4068,1.0931
10494.0,-3.612,-7.3706,-1.0564,-1.3761,-0.4068,1.0931
10499.0,-3.612,-7.3706,-1.0564,-1.3761,-0.4068,1.0931
10504.0,-3.612,-7.3706,-1.0564,-1.3761,-0.4068,1.0931
10509.0,-3.612,-7.3706,-1.0564,-1.3761,-0.4068,1.0931
10514.0,-3.612,-7.3706,-1.0564,-1.0101,-0.6334,1.1309
10519.0,-3.612,-7.3706,-1.0564,-1.0101,-0.6334,1.1309
10524.0,-3.8419,-7.6042,-1.8526,-1.0101,-0.6334,1.1309
10529.0,-3.8419,-7.6042,-1.8526,-1.0101,-0.6334,1.1309
10534.0,-3.8419,-7.6042,-1.8526,-1.0101,-0.6334,1.1309
10539.0,-3.8419,-7.6042,-1.8526,-1.0101,-0.6334,1.1309
10544.0,-3.8419,-7.6042,-1.8526,-1.0101,-0.6334,1.1309
10549.0,-4.1101,-7.7472,-1.9473,-0.5538,-0.7904,0.8243
10554.0,-4.1101,-7.7472,-1.9473,-0.5538,-0.7904,0.8243
10559.0,-4.1101,-7.7472,-1.9473,-0.5538,-0.7904,0.8243
10564.0,-4.1101,-7.7472,-1.9473,-0.5538,-0.7904,0.8243
10569.0,-4.1101,-7.7472,-1.9473,-0.5538,-0.7904,0.8243
10574.0,-4.1101,-7.7472,-1.9473,-0.5538,-0.7904,0.8243
10579.0,-4.7327,-8.386,-3.4496,-0.0492,-0.6634,0.5011
10584.0,-4.7327,-8.386,-3.4496,-0.0492,-0.6634,0.5011
10589.0,-4.7327,-8.386,-3.4496,-0.0492,-0.6634,0.5011
10594.0,-4.7327,-8.386,-3.4496,-0.0492,-0.6634,0.5011
10599.0,-4.7327,-8.386,-3.4496,-0.0492,-0.6634,0.5011
10604.0,-4.7327,-8.386,-3.4496,-0.0492,-0.6634,0.5011
10609.0,-4.3591,-9.2059,-3.8382,-0.0492,-0.6634,0.5011
10614.0,-4.3591,-9.2059,-3.8382,0.2049,0.5474,0.1707
10619.0,-4.3591,-9.2059,-3.8382,0.2049,0.5474,0.1707
10624.0,-4.3591,-9.2059,-3.8382,0.2049,0.5474,0.1707
10629.0,-4.3591,-9.2059,-3.8382,0.2049,0.5474,0.1707
10634.0,-4.2681,-9.4394,-4.3121,0.2049,0.5474,0.1707
10639.0,-4.2681,-9.4394,-4.3121,0.2049,0.5474,0.1707
10644.0,-4.2681,-9.4394,-4.3121,0.693,0.4301,-0.9167
10649.0,-4.2681,-9.4394,-4.3121,0.693,0.4301,-0.9167
10654.0,-4.2681,-9.4394,-4.3121,0.693,0.4301,-0.9167
10659.0,-4.2346,-9.5538,-2.6535,0.693,0.4301,-0.9167
10664.0,-4.2346,-9.5538,-2.6535,0.693,0.4301,-0.9167
10669.0,-4.2346,-9.5538,-2.6535,0.693,0.4301,-0.9167
10674.0,-4.2346,-9.5538,-2.6535,1.0705,-0.2107,-1.4133
10679.0,-4.2346,-9.5538,-2.6535,1.0705,-0.2107,-1.4133
10684.0,-4.2346,-9.5538,-2.6535,1.0705,-0.2107,-1.4133
10689.0,-4.4597,-8.2191,-3.6155,1.0705,-0.2107,-1.4133
10694.0,-4.4597,-8.2191,-3.6155,1.0705,-0.2107,-1.4133
10699.0,-4.4597,-8.2191,-3.6155,1.0705,-0.2107,-1.4133
10704.0,-4.4597,-8.2191,-3.6155,0.9404,-1.3103,-0.607
10709.0,-4.4597,-8.2191,-3.6155,0.9404,-1.3103,-0.607
10714.0,-4.4597,-8.2191,-3.6155,0.9404,-1.3103,-0.607
10719.0,-4.043,-7.5136,-3.0752,0.9404,-1.3103,-0.607
10724.0,-4.043,-7.5136,-3.0752,0.9404,-1.3103,-0.607
10729.0,-4.043,-7.5136,-3.0752,0.9404,-1.3103,-0.607
10734.0,-4.043,-7.5136,-3.0752,1.4034,-0.5889,-1.0053
10738.0,-4.043,-7.5136,-3.0752,1.4034,-0.5889,-1.0053
10744.0,-2.4339,-6.0264,-0.1039,1.4034,-0.5889,-1.0053
10749.0,-2.4339,-6.0264,-0.1039,1.4034,-0.5889,-1.0053
10754.0,-2.4339,-6.0264,-0.1039,1.4034,-0.5889,-1.0053
10759.0,-2.4339,-6.0264,-0.1039,1.4034,-0.5889,-1.0053
10764.0,-2.4339,-6.0264,-0.1039,1.2519,0.1167,-0.6125
10769.0,-2.4339,-6.0264,-0.1039,1.2519,0.1167,-0.6125
10774.0,-4.5172,-5.2876,-0.4024,1.2519,0.1167,-0.6125
10779.0,-4.5172,-5.2876,-0.4024,1.2519,0.1167,-0.6125
10784.0,-4.5172,-5.2876,-0.4024,1.2519,0.1167,-0.6125
10789.0,-4.5172,-5.2876,-0.4024,1.2519,0.1167,-0.6125
10794.0,-4.5172,-5.2876,-0.4024,1.7681,0.606,-1.1018
10799.0,-8.0756,-5.7023,-2.2743,1.7681,0.606,-1.1018
10803.0,-8.0756,-5.7023,-2.2743,1.7681,0.606,-1.1018
10809.0,-8.0756,-5.7023,-2.2743,1.7681,0.606,-1.1018
10814.0,-8.0756,-5.7023,-2.2743,1.7681,0.606,-1.1018
10819.0,-8.0756,-5.7023,-2.2743,1.7681,0.606,-1.1018
10824.0,-8.0756,-5.6784,1.0146,2.2244,-0.9334,-1.0169
10829.0,-6.7154,-5.6784,1.0146,2.2244,-0.9334,-1.0169
10834.0,-6.7154,-5.6784,1.0146,2.2244,-0.9334,-1.0169
10839.0,-6.7154,-5.6784,1.0146,2.2244,-0.9334,-1.0169
10844.0,-6.7154,-5.6784,1.0146,2.2244,-0.9334,-1.0169
10849.0,-6.7154,-5.6784,1.0146,2.2244,-0.9334,-1.0169
10854.0,-4.7471,-6.7319,-5.6154,2.2244,-0.9334,-1.0169
10859.0,-4.7471,-6.7319,-5.6154,1.6765,2.0984,-0.9014
10864.0,-4.7471,-6.7319,-5.6154,1.6765,2.0984,-0.9014
10869.0,-4.7471,-6.7319,-5.6154,1.6765,2.0984,-0.9014
10874.0,-4.7471,-6.7319,-5.6154,1.6765,2.0984,-0.9014
10879.0,-5.1637,-7.5947,-0.9995,1.6765,2.0984,-0.9014
10883.0,-5.1637,-7.5947,-0.9995,1.5018,2.0556,-0.599
10889.0,-5.1637,-7.5947,-0.9995,1.5018,2.0556,-0.599
10894.0,-5.1637,-7.5947,-0.9995,1.5018,2.0556,-0.599
10899.0,-5.1637,-7.5947,-0.9995,1.5018,2.0556,-0.599
10904.0,-5.1637,-7.5947,-0.9995,1.5018,2.0556,-0.599
10908.0,-2.9894,-7.9093,-6.8997,1.5018,2.0556,-0.599
10915.0,-2.9894,-7.9093,-6.8997,1.5018,2.0556,-0.599
10919.0,-2.9894,-7.9093,-6.8997,1.4034,0.3171,-0.8819
10924.0,-2.9894,-7.9093,-6.8997,1.4034,0.3171,-0.8819
