time in milliseconds,acceleration_x,acceleration_y,acceleration_z,Roll,Pitch,Yaw
4.0,-7.0119,-3.8455,5.2674,-0.4675,2.0584,-1.0744
8.0,-7.0119,-3.8455,5.2674,-0.4675,2.0584,-1.0744
13.0,-6.4803,-2.4488,4.8598,-0.4675,2.0584,-1.0744
18.0,-6.4803,-2.4488,4.8598,-0.4675,2.0584,-1.0744
24.0,-6.4803,-2.4488,4.8598,-0.0087,2.9277,-1.0268
29.0,-6.4803,-2.4488,4.8598,-0.0087,2.9277,-1.0268
33.0,-6.4803,-2.4488,4.8598,-0.0087,2.9277,-1.0268
38.0,-6.0733,-1.8577,3.2817,-0.0087,2.9277,-1.0268
44.0,-6.0733,-1.8577,3.2817,-0.0087,2.9277,-1.0268
49.0,-6.0733,-1.8577,3.2817,-0.0362,2.4353,-1.2601
53.0,-6.0733,-1.8577,3.2817,-0.0362,2.4353,-1.2601
58.0,-6.0733,-1.8577,3.2817,-0.0362,2.4353,-1.2601
63.0,-8.6211,-3.4832,5.457,-0.0362,2.4353,-1.2601
69.0,-8.6211,-3.4832,5.457,-0.0362,2.4353,-1.2601
74.0,-8.6211,-3.4832,5.457,-0.0362,2.4353,-1.2601
78.0,-8.6211,-3.4832,5.457,-0.0362,2.4353,-1.2601
83.0,-8.6211,-3.4832,5.457,-0.831,1.249,-1.0072
89.0,-8.6211,-3.4832,5.457,-0.831,1.249,-1.0072
94.0,-5.987,-4.2745,6.8502,-0.831,1.249,-1.0072
99.0,-5.987,-4.2745,6.8502,-0.831,1.249,-1.0072
103.0,-5.987,-4.2745,6.8502,-0.831,1.249,-1.0072
108.0,-5.987,-4.2745,6.8502,-0.831,1.249,-1.0072
114.0,-5.987,-4.2745,6.8502,-1.2158,1.4836,-1.0255
119.0,-3.3674,-5.5901,6.6796,-1.2158,1.4836,-1.0255
123.0,-3.3674,-5.5901,6.6796,-1.2158,1.4836,-1.0255
128.0,-3.3674,-5.5901,6.6796,-1.2158,1.4836,-1.0255
133.0,-3.3674,-5.5901,6.6796,-1.2158,1.4836,-1.0255
139.0,-3.3674,-5.5901,6.6796,-1.2158,1.4836,-1.0255
144.0,-2.0743,-5.9953,6.1489,-1.3472,3.2508,-0.5656
149.0,-2.0743,-5.9953,6.1489,-1.3472,3.2508,-0.5656
153.0,-2.0743,-5.9953,6.1489,-1.3472,3.2508,-0.5656
158.0,-2.0743,-5.9953,6.1489,-1.3472,3.2508,-0.5656
164.0,-2.0743,-5.9953,6.1489,-1.3472,3.2508,-0.5656
169.0,-2.0743,-5.9953,6.1489,-1.3472,3.2508,-0.5656
173.0,-4.3396,-6.186,4.7603,-1.3594,4.5789,-0.5931
178.0,-4.3396,-6.186,4.7603,-1.3594,4.5789,-0.5931
183.0,-4.3396,-6.186,4.7603,-1.3594,4.5789,-0.5931
189.0,-4.3396,-6.186,4.7603,-1.3594,4.5789,-0.5931
194.0,-4.3396,-6.186,4.7603,-1.3594,4.5789,-0.5931
198.0,-5.3166,-8.088,5.6133,-1.3594,4.5789,-0.5931
203.0,-5.3166,-8.088,5.6133,-1.3594,4.5789,-0.5931
209.0,-5.3166,-8.088,5.6133,-3.0997,5.1849,-0.1868
214.0,-5.3166,-8.088,5.6133,-3.0997,5.1849,-0.1868
218.0,-5.3166,-8.088,5.6133,-3.0997,5.1849,-0.1868
223.0,-7.1317,-10.5,2.7557,-3.0997,5.1849,-0.1868
229.0,-7.1317,-10.5,2.7557,-3.0997,5.1849,-0.1868
234.0,-7.1317,-10.5,2.7557,-3.0997,5.1849,-0.1868
238.0,-7.1317,-10.5,2.7557,-4.2781,4.4335,0.95
243.0,-7.1317,-10.5,2.7557,-4.2781,4.4335,0.95
249.0,-13.4008,-10.4618,2.5425,-4.2781,4.4335,0.95
254.0,-13.4008,-10.4618,2.5425,-4.2781,4.4335,0.95
258.0,-13.4008,-10.4618,2.5425,-4.2781,4.4335,0.95
263.0,-13.4008,-10.4618,2.5425,-4.2781,4.4335,0.95
268.0,-13.4008,-10.4618,2.5425,-2.4205,1.5752,1.6879
274.0,-15.5607,-5.0563,0.661,-2.4205,1.5752,1.6879
278.0,-15.5607,-5.0563,0.661,-2.4205,1.5752,1.6879
283.0,-15.5607,-5.0563,0.661,-2.4205,1.5752,1.6879
288.0,-15.5607,-5.0563,0.661,-2.4205,1.5752,1.6879
294.0,-15.5607,-5.0563,0.661,-2.4205,1.5752,1.6879
298.0,-15.5607,-5.0563,0.661,-2.2421,-1.8976,0.8822
303.0,-19.7465,-7.2252,3.5613,-2.2421,-1.8976,0.8822
309.0,-19.7465,-7.2252,3.5613,-2.2421,-1.8976,0.8822
313.0,-19.7465,-7.2252,3.5613,-2.2421,-1.8976,0.8822
318.0,-19.7465,-7.2252,3.5613,-2.2421,-1.8976,0.8822
324.0,-19.7465,-7.2252,3.5613,-2.2421,-1.8976,0.8822
329.0,-19.7465,-7.2252,3.5613,-2.2421,-1.8976,0.8822
336.0,-19.7465,-7.2252,3.5613,-2.2421,-1.8976,0.8822
339.0,-19.7465,-7.2252,3.5613,-2.2421,-1.8976,0.8822
343.0,-17.3662,-4.2125,5.0068,-1.2641,-3.8078,-0.3084
349.0,-17.3662,-4.2125,5.0068,-1.2641,-3.8078,-0.3084
354.0,-17.3662,-4.2125,5.0068,-1.2641,-3.8078,-0.3084
358.0,-17.3662,-4.2125,5.0068,-1.2641,-3.8078,-0.3084
364.0,-17.3662,-4.2125,5.0068,-1.2641,-3.8078,-0.3084
369.0,-17.3662,-4.2125,5.0068,-1.2641,-3.8078,-0.3084
373.0,-17.3662,-4.2125,5.0068,-1.2641,-3.8078,-0.3084
379.0,-17.3662,-4.2125,5.0068,-1.2641,-3.8078,-0.3084
386.0,-17.3662,-4.2125,5.0068,-1.2641,-3.8078,-0.3084
391.0,-17.3662,-4.2125,5.0068,-1.2641,-3.8078,-0.3084
394.0,-17.3662,-4.2125,5.0068,-1.2641,-3.8078,-0.3084
399.0,-13.9755,-3.5786,6.2057,0.5429,-4.6367,-1.3212
405.0,-13.9755,-3.5786,6.2057,0.5429,-4.6367,-1.3212
410.0,-13.9755,-3.5786,6.2057,0.5429,-4.6367,-1.3212
414.0,-13.9755,-3.5786,6.2057,0.5429,-4.6367,-1.3212
419.0,-13.9755,-3.5786,6.2057,0.5429,-4.6367,-1.3212
424.0,-13.9755,-3.5786,6.2057,0.5429,-4.6367,-1.3212
429.0,-7.9123,-3.2401,7.6985,1.9332,-4.8597,-0.7879
433.0,-7.9123,-3.2401,7.6985,1.9332,-4.8597,-0.7879
439.0,-7.9123,-3.2401,7.6985,1.9332,-4.8597,-0.7879
443.0,-7.9123,-3.2401,7.6985,1.9332,-4.8597,-0.7879
448.0,-7.9123,-3.2401,7.6985,1.9332,-4.8597,-0.7879
454.0,-7.9123,-3.2401,7.6985,1.9332,-4.8597,-0.7879
458.0,-5.2782,-5.6092,7.7601,1.9332,-4.8597,-0.7879
463.0,-5.2782,-5.6092,7.7601,1.5184,-3.5677,-0.3402
469.0,-5.2782,-5.6092,7.7601,1.5184,-3.5677,-0.3402
473.0,-5.2782,-5.6092,7.7601,1.5184,-3.5677,-0.3402
479.0,-5.2782,-5.6092,7.7601,1.5184,-3.5677,-0.3402
484.0,-4.0762,-5.3232,8.0208,1.5184,-3.5677,-0.3402
488.0,-4.0762,-5.3232,8.0208,1.5184,-3.5677,-0.3402
494.0,-4.0762,-5.3232,8.0208,1.8715,-2.644,0.1626
499.0,-4.0762,-5.3232,8.0208,1.8715,-2.644,0.1626
504.0,-4.0762,-5.3232,8.0208,1.8715,-2.644,0.1626
509.0,-3.8032,-5.3661,8.0255,1.8715,-2.644,0.1626
513.0,-3.8032,-5.3661,8.0255,1.8715,-2.644,0.1626
518.0,-3.8032,-5.3661,8.0255,1.8715,-2.644,0.1626
524.0,-3.8032,-5.3661,8.0255,1.4543,-1.991,0.8492
528.0,-3.8032,-5.3661,8.0255,1.4543,-1.991,0.8492
533.0,-3.8032,-5.3661,8.0255,1.4543,-1.991,0.8492
539.0,-3.8032,-5.3661,8.0255,1.4543,-1.991,0.8492
543.0,-3.2764,-4.0934,6.9592,1.4543,-1.991,0.8492
549.0,-3.2764,-4.0934,6.9592,1.4543,-1.991,0.8492
554.0,-3.2764,-4.0934,6.9592,1.4543,-1.991,0.8492
558.0,-3.2764,-4.0934,6.9592,0.7444,-1.1205,0.6195
563.0,-3.2764,-4.0934,6.9592,0.7444,-1.1205,0.6195
569.0,-3.2764,-4.0934,6.9592,0.7444,-1.1205,0.6195
574.0,-3.5014,-3.7025,6.2389,0.7444,-1.1205,0.6195
578.0,-3.5014,-3.7025,6.2389,0.7444,-1.1205,0.6195
583.0,-3.5014,-3.7025,6.2389,0.7444,-1.1205,0.6195
589.0,-3.5014,-3.7025,6.2389,0.7444,-1.1205,0.6195
593.0,-3.5014,-3.7025,6.2389,0.8483,-0.3203,0.1546
599.0,-3.5014,-3.7025,6.2389,0.8483,-0.3203,0.1546
604.0,-3.5014,-3.7025,6.2389,0.8483,-0.3203,0.1546
608.0,-3.7744,-4.4795,6.1536,0.8483,-0.3203,0.1546
613.0,-3.7744,-4.4795,6.1536,0.8483,-0.3203,0.1546
619.0,-3.7744,-4.4795,6.1536,0.8483,-0.3203,0.1546
624.0,-3.7744,-4.4795,6.1536,0.6223,0.0768,0.2976
628.0,-3.7744,-4.4795,6.1536,0.6223,0.0768,0.2976
633.0,-2.8262,-4.5033,6.0209,0.6223,0.0768,0.2976
639.0,-2.8262,-4.5033,6.0209,0.6223,0.0768,0.2976
643.0,-2.8262,-4.5033,6.0209,0.6223,0.0768,0.2976
649.0,-2.8262,-4.5033,6.0209,0.6223,0.0768,0.2976
654.0,-2.8262,-4.5033,6.0209,0.6223,0.0768,0.2976
658.0,-0.4268,-3.569,5.31,-0.5891,0.7151,-0.0854
663.0,-0.4268,-3.569,5.31,-0.5891,0.7151,-0.0854
669.0,-0.4268,-3.569,5.31,-0.5891,0.7151,-0.0854
674.0,-0.4268,-3.569,5.31,-0.5891,0.7151,-0.0854
678.0,-0.4268,-3.569,5.31,-0.5891,0.7151,-0.0854
686.0,-0.4268,-3.569,5.31,-0.5891,0.7151,-0.0854
689.0,-0.4268,-3.569,5.31,-0.5891,0.7151,-0.0854
694.0,-3.808,-8.9698,7.4189,-2.0258,2.53,-0.7421
699.0,-3.808,-8.9698,7.4189,-2.0258,2.53,-0.7421
704.0,-3.808,-8.9698,7.4189,-2.0258,2.53,-0.7421
708.0,-3.808,-8.9698,7.4189,-2.0258,2.53,-0.7421
714.0,-3.808,-8.9698,7.4189,-2.0258,2.53,-0.7421
718.0,-3.808,-8.9698,7.4189,-2.0258,2.53,-0.7421
724.0,-3.808,-8.9698,7.4189,-2.0258,2.53,-0.7421
729.0,-5.0867,-9.7802,6.8787,-1.5909,3.1507,-0.3512
734.0,-5.0867,-9.7802,6.8787,-1.5909,3.1507,-0.3512
738.0,-5.0867,-9.7802,6.8787,-1.5909,3.1507,-0.3512
743.0,-5.0867,-9.7802,6.8787,-1.5909,3.1507,-0.3512
749.0,-5.0867,-9.7802,6.8787,-1.5909,3.1507,-0.3512
753.0,-4.8712,-3.6834,4.5565,-1.5909,3.1507,-0.3512
758.0,-4.8712,-3.6834,4.5565,-1.5121,0.5832,0.5267
764.0,-4.8712,-3.6834,4.5565,-1.5121,0.5832,0.5267
769.0,-4.8712,-3.6834,4.5565,-1.5121,0.5832,0.5267
773.0,-4.8712,-3.6834,4.5565,-1.5121,0.5832,0.5267
778.0,1.0723,-2.3582,5.1015,-1.5121,0.5832,0.5267
784.0,1.0723,-2.3582,5.1015,-1.5121,0.5832,0.5267
788.0,1.0723,-2.3582,5.1015,-3.6355,2.1073,-1.6523
793.0,1.0723,-2.3582,5.1015,-3.6355,2.1073,-1.6523
799.0,1.0723,-2.3582,5.1015,-3.6355,2.1073,-1.6523
803.0,2.8443,-7.4444,6.1346,-3.6355,2.1073,-1.6523
808.0,2.8443,-7.4444,6.1346,-3.6355,2.1073,-1.6523
813.0,2.8443,-7.4444,6.1346,-3.6355,2.1073,-1.6523
819.0,2.8443,-7.4444,6.1346,-5.7809,5.4689,-1.9638
824.0,2.8443,-7.4444,6.1346,-5.7809,5.4689,-1.9638
828.0,2.8443,-7.4444,6.1346,-5.7809,5.4689,-1.9638
833.0,1.5847,-12.5783,8.5942,-5.7809,5.4689,-1.9638
839.0,1.5847,-12.5783,8.5942,-5.7809,5.4689,-1.9638
844.0,1.5847,-12.5783,8.5942,-5.7809,5.4689,-1.9638
848.0,1.5847,-12.5783,8.5942,-5.5219,8.249,-0.1312
854.0,1.5847,-12.5783,8.5942,-5.5219,8.249,-0.1312
859.0,-0.5704,-14.2705,6.0067,-5.5219,8.249,-0.1312
863.0,-0.5704,-14.2705,6.0067,-5.5219,8.249,-0.1312
869.0,-0.5704,-14.2705,6.0067,-5.5219,8.249,-0.1312
873.0,-0.5704,-14.2705,6.0067,-5.5219,8.249,-0.1312
879.0,-0.5704,-14.2705,6.0067,-5.5219,8.249,-0.1312
883.0,-0.5704,-14.2705,6.0067,-4.2555,10.7878,1.6776
889.0,-6.8443,-13.2218,-0.4763,-4.2555,10.7878,1.6776
893.0,-6.8443,-13.2218,-0.4763,-4.2555,10.7878,1.6776
899.0,-6.8443,-13.2218,-0.4763,-4.2555,10.7878,1.6776
903.0,-6.8443,-13.2218,-0.4763,-4.2555,10.7878,1.6776
908.0,-6.8443,-13.2218,-0.4763,-4.2555,10.7878,1.6776
914.0,-15.9247,-10.7049,-4.7747,-2.5561,8.5953,2.7026
918.0,-15.9247,-10.7049,-4.7747,-2.5561,8.5953,2.7026
923.0,-15.9247,-10.7049,-4.7747,-2.5561,8.5953,2.7026
929.0,-15.9247,-10.7049,-4.7747,-2.5561,8.5953,2.7026
934.0,-15.9247,-10.7049,-4.7747,-2.5561,8.5953,2.7026
938.0,-15.9247,-10.7049,-4.7747,-2.5561,8.5953,2.7026
944.0,-20.6373,-3.9265,-14.03,-0.2775,-0.4125,1.3617
948.0,-20.6373,-3.9265,-14.03,-0.2775,-0.4125,1.3617
953.0,-20.6373,-3.9265,-14.03,-0.2775,-0.4125,1.3617
959.0,-20.6373,-3.9265,-14.03,-0.2775,-0.4125,1.3617
963.0,-20.6373,-3.9265,-14.03,-0.2775,-0.4125,1.3617
969.0,-8.4104,-7.9449,-5.9973,-0.2775,-0.4125,1.3617
976.0,-8.4104,-7.9449,-5.9973,-2.1492,-6.1248,-3.4055
984.0,-8.4104,-7.9449,-5.9973,-2.1492,-6.1248,-3.4055
984.0,-8.4104,-7.9449,-5.9973,-2.1492,-6.1248,-3.4055
989.0,-8.4104,-7.9449,-5.9973,-2.1492,-6.1248,-3.4055
995.0,-8.4104,-7.9449,-5.9973,-2.1492,-6.1248,-3.4055
999.0,-8.4104,-7.9449,-5.9973,-2.1492,-6.1248,-3.4055
1005.0,-4.4689,-9.661,-4.1728,-2.1492,-6.1248,-3.4055
1011.0,-4.4689,-9.661,-4.1728,-2.1492,-6.1248,-3.4055
1014.0,-4.4689,-9.661,-4.1728,-2.1492,-6.1248,-3.4055
1018.0,-4.4689,-9.661,-4.1728,-1.167,-4.104,-3.0054
1023.0,-4.4689,-9.661,-4.1728,-1.167,-4.104,-3.0054
1029.0,-4.4689,-9.661,-4.1728,-1.167,-4.104,-3.0054
1033.0,-1.3607,-12.3161,-2.2724,-1.167,-4.104,-3.0054
1039.0,-1.3607,-12.3161,-2.2724,-1.167,-4.104,-3.0054
1044.0,-1.3607,-12.3161,-2.2724,-1.167,-4.104,-3.0054
1049.0,-1.3607,-12.3161,-2.2724,1.0658,0.2893,0.9335
1053.0,-1.3607,-12.3161,-2.2724,1.0658,0.2893,0.9335
1058.0,-1.3607,-10.1663,0.4193,1.0658,0.2893,0.9335
1064.0,-1.3607,-10.1663,0.4193,1.0658,0.2893,0.9335
1069.0,-1.3607,-10.1663,0.4193,1.0658,0.2893,0.9335
1073.0,-1.3607,-10.1663,0.4193,1.0658,0.2893,0.9335
1078.0,-1.3607,-10.1663,0.4193,0.0236,1.3602,1.0044
1083.0,-2.8932,-9.8564,1.2202,0.0236,1.3602,1.0044
1089.0,-2.8932,-9.8564,1.2202,0.0236,1.3602,1.0044
1094.0,-2.8932,-9.8564,1.2202,0.0236,1.3602,1.0044
1098.0,-2.8932,-9.8564,1.2202,0.0236,1.3602,1.0044
1103.0,-2.8932,-9.8564,1.2202,0.0236,1.3602,1.0044
1108.0,-2.8932,-9.8564,1.2202,0.0236,1.3602,1.0044
1114.0,-3.6212,-10.1043,2.1207,0.4751,1.7542,1.4723
1119.0,-3.6212,-10.1043,2.1207,0.4751,1.7542,1.4723
1123.0,-3.6212,-10.1043,2.1207,0.4751,1.7542,1.4723
1129.0,-3.6212,-10.1043,2.1207,0.4751,1.7542,1.4723
1134.0,-3.6212,-10.1043,2.1207,0.4751,1.7542,1.4723
1138.0,-4.7131,-9.2701,1.116,0.4751,1.7542,1.4723
1144.0,-4.7131,-9.2701,1.116,0.1391,1.1513,1.7728
1148.0,-4.7131,-9.2701,1.116,0.1391,1.1513,1.7728
1153.0,-4.7131,-9.2701,1.116,0.1391,1.1513,1.7728
1158.0,-4.7131,-9.2701,1.116,0.1391,1.1513,1.7728
1164.0,-4.7131,-9.2701,1.116,0.1391,1.1513,1.7728
1168.0,-4.9574,-8.9603,3.0021,0.1391,1.1513,1.7728
1174.0,-4.9574,-8.9603,3.0021,-0.0045,1.4842,1.8944
1178.0,-4.9574,-8.9603,3.0021,-0.0045,1.4842,1.8944
1184.0,-4.9574,-8.9603,3.0021,-0.0045,1.4842,1.8944
1189.0,-4.9574,-8.9603,3.0021,-0.0045,1.4842,1.8944
1193.0,-1.9689,-9.5228,4.2864,-0.0045,1.4842,1.8944
1199.0,-1.9689,-9.5228,4.2864,-0.0045,1.4842,1.8944
1203.0,-1.9689,-9.5228,4.2864,0.3101,2.009,1.4814
1208.0,-1.9689,-9.5228,4.2864,0.3101,2.009,1.4814
1214.0,-1.9689,-9.5228,4.2864,0.3101,2.009,1.4814
1218.0,-1.9689,-9.5228,4.2864,0.3101,2.009,1.4814
1223.0,-3.4536,-8.7601,2.3339,0.3101,2.009,1.4814
1229.0,-3.4536,-8.7601,2.3339,0.3101,2.009,1.4814
1234.0,-3.4536,-8.7601,2.3339,0.3101,2.009,1.4814
1238.0,-3.4536,-8.7601,2.3339,-0.1993,1.8428,2.0416
1244.0,-3.4536,-8.7601,2.3339,-0.1993,1.8428,2.0416
1248.0,-3.4583,-7.5064,2.2297,-0.1993,1.8428,2.0416
1253.0,-3.4583,-7.5064,2.2297,-0.1993,1.8428,2.0416
1259.0,-3.4583,-7.5064,2.2297,-0.1993,1.8428,2.0416
1264.0,-3.4583,-7.5064,2.2297,-0.1993,1.8428,2.0416
1268.0,-3.4583,-7.5064,2.2297,-0.2971,1.2686,1.7594
1273.0,-3.535,-7.1537,2.424,-0.2971,1.2686,1.7594
1278.0,-3.535,-7.1537,2.424,-0.2971,1.2686,1.7594
1284.0,-3.535,-7.1537,2.424,-0.2971,1.2686,1.7594
1289.0,-3.535,-7.1537,2.424,-0.2971,1.2686,1.7594
1293.0,-3.535,-7.1537,2.424,-0.2971,1.2686,1.7594
1298.0,-3.535,-7.1537,2.424,-0.1328,0.5221,1.5016
1304.0,-3.4919,-6.3004,2.5519,-0.1328,0.5221,1.5016
1309.0,-3.4919,-6.3004,2.5519,-0.1328,0.5221,1.5016
1313.0,-3.4919,-6.3004,2.5519,-0.1328,0.5221,1.5016
1318.0,-3.4919,-6.3004,2.5519,-0.1328,0.5221,1.5016
1323.0,-3.4919,-6.3004,2.5519,-0.1328,0.5221,1.5016
1329.0,-2.6585,-8.2643,3.6229,-0.2409,0.5282,1.3006
1334.0,-2.6585,-8.2643,3.6229,-0.2409,0.5282,1.3006
1338.0,-2.6585,-8.2643,3.6229,-0.2409,0.5282,1.3006
1343.0,-2.6585,-8.2643,3.6229,-0.2409,0.5282,1.3006
1348.0,-2.6585,-8.2643,3.6229,-0.2409,0.5282,1.3006
1354.0,-2.6585,-8.2643,3.6229,-0.2409,0.5282,1.3006
1359.0,-3.9325,-9.3416,4.0684,0.0682,0.9711,1.3617
1363.0,-3.9325,-9.3416,4.0684,0.0682,0.9711,1.3617
1368.0,-3.9325,-9.3416,4.0684,0.0682,0.9711,1.3617
1374.0,-3.9325,-9.3416,4.0684,0.0682,0.9711,1.3617
1378.0,-3.9325,-9.3416,4.0684,0.0682,0.9711,1.3617
1384.0,-6.5761,-6.1669,2.6846,0.0682,0.9711,1.3617
1389.0,-6.5761,-6.1669,2.6846,0.3987,0.1574,1.0025
1393.0,-6.5761,-6.1669,2.6846,0.3987,0.1574,1.0025
1399.0,-6.5761,-6.1669,2.6846,0.3987,0.1574,1.0025
1403.0,-6.5761,-6.1669,2.6846,0.3987,0.1574,1.0025
1409.0,-7.3759,-6.0382,3.5471,0.3987,0.1574,1.0025
1413.0,-7.3759,-6.0382,3.5471,0.3987,0.1574,1.0025
1418.0,-7.3759,-6.0382,3.5471,1.4506,-0.8853,7.0E-4
1424.0,-7.3759,-6.0382,3.5471,1.4506,-0.8853,7.0E-4
1428.0,-7.3759,-6.0382,3.5471,1.4506,-0.8853,7.0E-4
1433.0,-7.3759,-6.0382,3.5471,1.4506,-0.8853,7.0E-4
1439.0,-4.2534,-9.0985,5.6607,1.4506,-0.8853,7.0E-4
1444.0,-4.2534,-9.0985,5.6607,1.4506,-0.8853,7.0E-4
1448.0,-4.2534,-9.0985,5.6607,0.9509,-0.0674,0.994
1453.0,-4.2534,-9.0985,5.6607,0.9509,-0.0674,0.994
1459.0,-4.2534,-9.0985,5.6607,0.9509,-0.0674,0.994
1463.0,-3.7361,-8.3978,6.746,0.9509,-0.0674,0.994
1469.0,-3.7361,-8.3978,6.746,0.9509,-0.0674,0.994
1473.0,-3.7361,-8.3978,6.746,0.9509,-0.0674,0.994
1479.0,-3.7361,-8.3978,6.746,0.9509,-0.0674,0.994
1484.0,-3.7361,-8.3978,6.746,1.3755,0.7994,1.0892
1488.0,-2.3568,-2.4155,7.3384,1.3755,0.7994,1.0892
1494.0,-2.3568,-2.4155,7.3384,1.3755,0.7994,1.0892
1499.0,-2.3568,-2.4155,7.3384,1.3755,0.7994,1.0892
1504.0,-2.3568,-2.4155,7.3384,1.3755,0.7994,1.0892
1509.0,-2.3568,-2.4155,7.3384,1.3755,0.7994,1.0892
1513.0,-2.3568,-2.4155,7.3384,1.6058,1.2075,-0.2003
1519.0,-3.808,-4.9037,4.893,1.6058,1.2075,-0.2003
1524.0,-3.808,-4.9037,4.893,1.6058,1.2075,-0.2003
1528.0,-3.808,-4.9037,4.893,1.6058,1.2075,-0.2003
1534.0,-3.808,-4.9037,4.893,1.6058,1.2075,-0.2003
1538.0,-3.808,-4.9037,4.893,1.6058,1.2075,-0.2003
1544.0,-3.9229,-5.1945,2.931,1.2307,0.7438,-1.0317
1549.0,-3.9229,-5.1945,2.931,1.2307,0.7438,-1.0317
1553.0,-3.9229,-5.1945,2.931,1.2307,0.7438,-1.0317
1559.0,-3.9229,-5.1945,2.931,1.2307,0.7438,-1.0317
1563.0,-3.9229,-5.1945,2.931,1.2307,0.7438,-1.0317
1569.0,-6.0302,-7.5684,2.9974,1.2307,0.7438,-1.0317
1573.0,-6.0302,-7.5684,2.9974,1.2307,0.7438,-1.0317
1579.0,-6.0302,-7.5684,2.9974,0.6247,-0.2739,-1.6706
1583.0,-6.0302,-7.5684,2.9974,0.6247,-0.2739,-1.6706
1588.0,-6.0302,-7.5684,2.9974,0.6247,-0.2739,-1.6706
1594.0,-6.0302,-7.5684,2.9974,0.6247,-0.2739,-1.6706
1598.0,-7.4573,-6.0954,2.5235,0.6247,-0.2739,-1.6706
1604.0,-7.4573,-6.0954,2.5235,0.6247,-0.2739,-1.6706
1608.0,-7.4573,-6.0954,2.5235,0.5624,-0.0503,-1.1832
1614.0,-7.4573,-6.0954,2.5235,0.5624,-0.0503,-1.1832
1618.0,-7.4573,-6.0954,2.5235,0.5624,-0.0503,-1.1832
1623.0,-6.5618,-4.5701,1.9169,0.5624,-0.0503,-1.1832
1629.0,-6.5618,-4.5701,1.9169,0.5624,-0.0503,-1.1832
1633.0,-6.5618,-4.5701,1.9169,0.5624,-0.0503,-1.1832
1639.0,-6.5618,-4.5701,1.9169,1.0022,1.1507,-0.6902
1643.0,-6.5618,-4.5701,1.9169,1.0022,1.1507,-0.6902
1649.0,-6.5618,-4.5701,1.9169,1.0022,1.1507,-0.6902
1653.0,-6.1403,-4.7226,2.3102,1.0022,1.1507,-0.6902
1659.0,-6.1403,-4.7226,2.3102,1.0022,1.1507,-0.6902
1663.0,-6.1403,-4.7226,2.3102,1.0022,1.1507,-0.6902
1669.0,-6.1403,-4.7226,2.3102,0.9448,2.8,-1.3689
1674.0,-6.1403,-4.7226,2.3102,0.9448,2.8,-1.3689
1678.0,-6.2744,-9.5132,1.0828,0.9448,2.8,-1.3689
1684.0,-6.2744,-9.5132,1.0828,0.9448,2.8,-1.3689
1688.0,-6.2744,-9.5132,1.0828,0.9448,2.8,-1.3689
1694.0,-6.2744,-9.5132,1.0828,0.9448,2.8,-1.3689
1698.0,-6.2744,-9.5132,1.0828,1.4121,2.8855,-0.7824
1703.0,-8.4918,-12.645,4.0732,1.4121,2.8855,-0.7824
1708.0,-8.4918,-12.645,4.0732,1.4121,2.8855,-0.7824
1714.0,-8.4918,-12.645,4.0732,1.4121,2.8855,-0.7824
1719.0,-8.4918,-12.645,4.0732,1.4121,2.8855,-0.7824
1723.0,-8.4918,-12.645,4.0732,1.4121,2.8855,-0.7824
1729.0,-7.7926,-6.0382,2.642,1.1091,2.3364,2.1406
1733.0,-7.7926,-6.0382,2.642,1.1091,2.3364,2.1406
1739.0,-7.7926,-6.0382,2.642,1.1091,2.3364,2.1406
1743.0,-7.7926,-6.0382,2.642,1.1091,2.3364,2.1406
1748.0,-7.7926,-6.0382,2.642,1.1091,2.3364,2.1406
1754.0,-7.7926,-6.0382,2.642,1.1091,2.3364,2.1406
1758.0,-7.3663,-6.6436,2.9026,1.1091,2.3364,2.1406
1763.0,-7.3663,-6.6436,2.9026,0.4989,1.9882,1.6067
1769.0,-7.3663,-6.6436,2.9026,0.4989,1.9882,1.6067
1773.0,-7.3663,-6.6436,2.9026,0.4989,1.9882,1.6067
1779.0,-7.3663,-6.6436,2.9026,0.4989,1.9882,1.6067
1783.0,-9.6221,-7.883,1.4572,0.4989,1.9882,1.6067
1788.0,-9.6221,-7.883,1.4572,0.4989,1.9882,1.6067
1794.0,-9.6221,-7.883,1.4572,1.1672,0.4787,0.7362
1798.0,-9.6221,-7.883,1.4572,1.1672,0.4787,0.7362
1804.0,-9.6221,-7.883,1.4572,1.1672,0.4787,0.7362
1808.0,-9.6221,-7.883,1.4572,1.1672,0.4787,0.7362
1814.0,-10.3644,-6.6913,0.1208,1.1672,0.4787,0.7362
1818.0,-10.3644,-6.6913,0.1208,1.1672,0.4787,0.7362
1824.0,-10.3644,-6.6913,0.1208,0.5783,-0.6728,0.7417
1828.0,-10.3644,-6.6913,0.1208,0.5783,-0.6728,0.7417
1834.0,-10.3644,-6.6913,0.1208,0.5783,-0.6728,0.7417
1838.0,-8.4296,-3.9933,0.9075,0.5783,-0.6728,0.7417
1844.0,-8.4296,-3.9933,0.9075,0.5783,-0.6728,0.7417
1848.0,-8.4296,-3.9933,0.9075,0.5783,-0.6728,0.7417
1854.0,-8.4296,-3.9933,0.9075,-1.0167,-0.4541,0.658
1858.0,-8.4296,-3.9933,0.9075,-1.0167,-0.4541,0.658
1863.0,-7.1604,-7.0774,2.4192,-1.0167,-0.4541,0.658
1869.0,-7.1604,-7.0774,2.4192,-1.0167,-0.4541,0.658
1874.0,-7.1604,-7.0774,2.4192,-1.0167,-0.4541,0.658
1878.0,-7.1604,-7.0774,2.4192,-1.0167,-0.4541,0.658
1883.0,-7.1604,-7.0774,2.4192,-0.2323,0.2087,1.3495
1889.0,-7.1604,-7.0774,2.4192,-0.2323,0.2087,1.3495
1894.0,-7.4142,-7.3205,2.8552,-0.2323,0.2087,1.3495
1899.0,-7.4142,-7.3205,2.8552,-0.2323,0.2087,1.3495
1904.0,-7.4142,-7.3205,2.8552,-0.2323,0.2087,1.3495
1908.0,-7.4142,-7.3205,2.8552,-0.2323,0.2087,1.3495
1913.0,-7.4142,-7.3205,2.8552,-0.2323,0.2087,1.3495
1919.0,-7.9746,-6.3481,3.168,0.0163,0.7145,2.0056
1924.0,-7.9746,-6.3481,3.168,0.0163,0.7145,2.0056
1929.0,-7.9746,-6.3481,3.168,0.0163,0.7145,2.0056
1933.0,-7.9746,-6.3481,3.168,0.0163,0.7145,2.0056
1939.0,-7.9746,-6.3481,3.168,0.0163,0.7145,2.0056
1944.0,-8.5541,0.3207,5.22,0.0163,0.7145,2.0056
1948.0,-8.5541,0.3207,5.22,-0.3673,0.9137,2.4552
1954.0,-8.5541,0.3207,5.22,-0.3673,0.9137,2.4552
1959.0,-8.5541,0.3207,5.22,-0.3673,0.9137,2.4552
1963.0,-8.5541,0.3207,5.22,-0.3673,0.9137,2.4552
1969.0,-8.5541,0.3207,5.22,-0.3673,0.9137,2.4552
1973.0,-6.7054,-1.9102,3.3718,-0.3673,0.9137,2.4552
1979.0,-6.7054,-1.9102,3.3718,-0.4822,2.3339,2.3281
1985.0,-6.7054,-1.9102,3.3718,-0.4822,2.3339,2.3281
1989.0,-6.7054,-1.9102,3.3718,-0.4822,2.3339,2.3281
1993.0,-6.7054,-1.9102,3.3718,-0.4822,2.3339,2.3281
1999.0,-7.7447,-2.1247,3.5803,-0.4822,2.3339,2.3281
2003.0,-7.7447,-2.1247,3.5803,-0.4822,2.3339,2.3281
2008.0,-7.7447,-2.1247,3.5803,0.0865,2.728,1.5175
2014.0,-7.7447,-2.1247,3.5803,0.0865,2.728,1.5175
2018.0,-7.7447,-2.1247,3.5803,0.0865,2.728,1.5175
2023.0,-7.7447,-2.1247,3.5803,0.0865,2.728,1.5175
2029.0,-11.0397,-2.6347,3.7935,0.0865,2.728,1.5175
2033.0,-11.0397,-2.6347,3.7935,0.0865,2.728,1.5175
2038.0,-11.0397,-2.6347,3.7935,0.0865,2.728,1.5175
2044.0,-11.0397,-2.6347,3.7935,-0.834,1.9735,0.4582
2049.0,-11.0397,-2.6347,3.7935,-0.834,1.9735,0.4582
2053.0,-12.7542,-3.5166,-1.718,-0.834,1.9735,0.4582
2058.0,-12.7542,-3.5166,-1.718,-0.834,1.9735,0.4582
2064.0,-12.7542,-3.5166,-1.718,-0.834,1.9735,0.4582
2068.0,-12.7542,-3.5166,-1.718,-0.834,1.9735,0.4582
2074.0,-12.7542,-3.5166,-1.718,-2.371,-1.4168,-1.2809
2078.0,-10.4123,-4.6034,1.642,-2.371,-1.4168,-1.2809
2084.0,-10.4123,-4.6034,1.642,-2.371,-1.4168,-1.2809
2089.0,-10.4123,-4.6034,1.642,-2.371,-1.4168,-1.2809
2093.0,-10.4123,-4.6034,1.642,-2.371,-1.4168,-1.2809
2099.0,-10.4123,-4.6034,1.642,-2.371,-1.4168,-1.2809
2103.0,-10.4123,-4.6034,1.642,-2.0008,-2.2622,-3.1227
2109.0,-9.2533,-8.3311,1.2202,-2.0008,-2.2622,-3.1227
2113.0,-9.2533,-8.3311,1.2202,-2.0008,-2.2622,-3.1227
2119.0,-9.2533,-8.3311,1.2202,-2.0008,-2.2622,-3.1227
2123.0,-9.2533,-8.3311,1.2202,-2.0008,-2.2622,-3.1227
2129.0,-9.2533,-8.3311,1.2202,-2.0008,-2.2622,-3.1227
2133.0,-7.7591,-7.6732,3.8267,-0.5237,-2.5139,-2.557
2138.0,-7.7591,-7.6732,3.8267,-0.5237,-2.5139,-2.557
2144.0,-7.7591,-7.6732,3.8267,-0.5237,-2.5139,-2.557
2148.0,-7.7591,-7.6732,3.8267,-0.5237,-2.5139,-2.557
2153.0,-7.7591,-7.6732,3.8267,-0.5237,-2.5139,-2.557
2159.0,-7.2801,-8.4884,-1.0877,-0.5237,-2.5139,-2.557
2163.0,-7.2801,-8.4884,-1.0877,-0.5616,-2.5182,-0.2675
2169.0,-7.2801,-8.4884,-1.0877,-0.5616,-2.5182,-0.2675
2173.0,-7.2801,-8.4884,-1.0877,-0.5616,-2.5182,-0.2675
2178.0,-7.2801,-8.4884,-1.0877,-0.5616,-2.5182,-0.2675
2184.0,-7.2801,-8.4884,-1.0877,-0.5616,-2.5182,-0.2675
2188.0,-6.8539,-6.9153,-0.0877,-0.5616,-2.5182,-0.2675
2194.0,-6.8539,-6.9153,-0.0877,0.0267,-3.1303,0.1057
2199.0,-6.8539,-6.9153,-0.0877,0.0267,-3.1303,0.1057
2204.0,-6.8539,-6.9153,-0.0877,0.0267,-3.1303,0.1057
2208.0,-6.8539,-6.9153,-0.0877,0.0267,-3.1303,0.1057
2214.0,-6.9593,-4.8751,2.4713,0.0267,-3.1303,0.1057
2218.0,-6.9593,-4.8751,2.4713,0.0267,-3.1303,0.1057
2223.0,-6.9593,-4.8751,2.4713,0.2411,-3.6508,-0.568
2229.0,-6.9593,-4.8751,2.4713,0.2411,-3.6508,-0.568
2234.0,-6.9593,-4.8751,2.4713,0.2411,-3.6508,-0.568
2238.0,-6.9593,-4.8751,2.4713,0.2411,-3.6508,-0.568
2244.0,-6.6288,-6.0096,1.3482,0.2411,-3.6508,-0.568
2249.0,-6.6288,-6.0096,1.3482,0.2411,-3.6508,-0.568
2253.0,-6.6288,-6.0096,1.3482,0.7952,-4.9562,-1.2559
2259.0,-6.6288,-6.0096,1.3482,0.7952,-4.9562,-1.2559
2264.0,-6.6288,-6.0096,1.3482,0.7952,-4.9562,-1.2559
2268.0,-6.1116,-7.3396,3.2296,0.7952,-4.9562,-1.2559
2274.0,-6.1116,-7.3396,3.2296,0.7952,-4.9562,-1.2559
2278.0,-6.1116,-7.3396,3.2296,0.7952,-4.9562,-1.2559
2283.0,-6.1116,-7.3396,3.2296,0.7952,-4.9562,-1.2559
2289.0,-6.1116,-7.3396,3.2296,0.8874,-5.5518,-0.8441
2293.0,-3.3242,-4.9371,2.86,0.8874,-5.5518,-0.8441
2299.0,-3.3242,-4.9371,2.86,0.8874,-5.5518,-0.8441
2303.0,-3.3242,-4.9371,2.86,0.8874,-5.5518,-0.8441
2309.0,-3.3242,-4.9371,2.86,0.8874,-5.5518,-0.8441
2314.0,-3.3242,-4.9371,2.86,0.8874,-5.5518,-0.8441
2318.0,-3.3242,-4.9371,2.86,1.2063,-3.2219,-0.8228
2324.0,-3.353,-2.8492,1.3956,1.2063,-3.2219,-0.8228
2329.0,-3.353,-2.8492,1.3956,1.2063,-3.2219,-0.8228
2333.0,-3.353,-2.8492,1.3956,1.2063,-3.2219,-0.8228
2339.0,-3.353,-2.8492,1.3956,1.2063,-3.2219,-0.8228
2343.0,-3.353,-2.8492,1.3956,1.2063,-3.2219,-0.8228
2349.0,-7.9746,-4.2316,-0.6185,1.2063,-3.2219,-0.8228
2353.0,-7.9746,-4.2316,-0.6185,4.0438,-3.6703,-2.3958
2359.0,-7.9746,-4.2316,-0.6185,4.0438,-3.6703,-2.3958
2363.0,-7.9746,-4.2316,-0.6185,4.0438,-3.6703,-2.3958
2369.0,-7.9746,-4.2316,-0.6185,4.0438,-3.6703,-2.3958
2373.0,-3.9708,-8.9793,6.7176,4.0438,-3.6703,-2.3958
2379.0,-3.9708,-8.9793,6.7176,4.0438,-3.6703,-2.3958
2383.0,-3.9708,-8.9793,6.7176,3.709,-3.4205,-5.0414
2388.0,-3.9708,-8.9793,6.7176,3.709,-3.4205,-5.0414
2394.0,-3.9708,-8.9793,6.7176,3.709,-3.4205,-5.0414
2398.0,-3.9708,-8.9793,6.7176,3.709,-3.4205,-5.0414
2404.0,-6.6863,-7.1203,9.7837,3.709,-3.4205,-5.0414
2408.0,-6.6863,-7.1203,9.7837,3.709,-3.4205,-5.0414
2413.0,-6.6863,-7.1203,9.7837,0.4592,-0.7149,0.8871
2419.0,-6.6863,-7.1203,9.7837,0.4592,-0.7149,0.8871
2423.0,-6.6863,-7.1203,9.7837,0.4592,-0.7149,0.8871
2429.0,-4.9382,-5.9572,6.5043,0.4592,-0.7149,0.8871
2433.0,-4.9382,-5.9572,6.5043,0.4592,-0.7149,0.8871
2439.0,-4.9382,-5.9572,6.5043,0.4592,-0.7149,0.8871
2443.0,-4.9382,-5.9572,6.5043,2.8202,-0.9501,-0.0518
2449.0,-4.9382,-5.9572,6.5043,2.8202,-0.9501,-0.0518
2453.0,-4.9382,-5.9572,6.5043,2.8202,-0.9501,-0.0518
2459.0,-2.3281,-1.0188,9.2056,2.8202,-0.9501,-0.0518
2463.0,-2.3281,-1.0188,9.2056,2.8202,-0.9501,-0.0518
2469.0,-2.3281,-1.0188,9.2056,2.8202,-0.9501,-0.0518
2473.0,-2.3281,-1.0188,9.2056,-0.5597,2.7689,-0.6676
2479.0,-2.3281,-1.0188,9.2056,-0.5597,2.7689,-0.6676
2484.0,1.9056,-6.1955,6.4522,-0.5597,2.7689,-0.6676
2488.0,1.9056,-6.1955,6.4522,-0.5597,2.7689,-0.6676
2494.0,1.9056,-6.1955,6.4522,-0.5597,2.7689,-0.6676
2498.0,1.9056,-6.1955,6.4522,-0.5597,2.7689,-0.6676
2503.0,1.9056,-6.1955,6.4522,-4.2885,2.9503,-2.5112
2509.0,1.5081,-7.0965,2.6562,-4.2885,2.9503,-2.5112
2513.0,1.5081,-7.0965,2.6562,-4.2885,2.9503,-2.5112
2519.0,1.5081,-7.0965,2.6562,-4.2885,2.9503,-2.5112
2523.0,1.5081,-7.0965,2.6562,-4.2885,2.9503,-2.5112
2529.0,1.5081,-7.0965,2.6562,-4.2885,2.9503,-2.5112
2533.0,1.5081,-7.0965,2.6562,-4.2885,2.9503,-2.5112
2539.0,-2.4861,-10.2712,-0.647,-4.5041,3.7536,-1.455
2544.0,-2.4861,-10.2712,-0.647,-4.5041,3.7536,-1.455
2548.0,-2.4861,-10.2712,-0.647,-4.5041,3.7536,-1.455
2554.0,-2.4861,-10.2712,-0.647,-4.5041,3.7536,-1.455
2558.0,-2.4861,-10.2712,-0.647,-4.5041,3.7536,-1.455
2564.0,-4.603,-10.7145,0.0118,-4.5041,3.7536,-1.455
2568.0,-4.603,-10.7145,0.0118,-3.1633,5.819,-0.8362
2574.0,-4.603,-10.7145,0.0118,-3.1633,5.819,-0.8362
2579.0,-4.603,-10.7145,0.0118,-3.1633,5.819,-0.8362
2583.0,-4.603,-10.7145,0.0118,-3.1633,5.819,-0.8362
2589.0,-0.7764,-7.4015,-2.3814,-3.1633,5.819,-0.8362
2593.0,-0.7764,-7.4015,-2.3814,-3.1633,5.819,-0.8362
2599.0,-0.7764,-7.4015,-2.3814,-1.1101,6.5129,0.4986
2604.0,-0.7764,-7.4015,-2.3814,-1.1101,6.5129,0.4986
2609.0,-0.7764,-7.4015,-2.3814,-1.1101,6.5129,0.4986
2613.0,-0.7764,-7.4015,-2.3814,-1.1101,6.5129,0.4986
2618.0,-1.5379,-8.9507,-5.5234,-1.1101,6.5129,0.4986
2624.0,-1.5379,-8.9507,-5.5234,-1.1101,6.5129,0.4986
2628.0,-1.5379,-8.9507,-5.5234,-1.1101,6.5129,0.4986
2633.0,-1.5379,-8.9507,-5.5234,-1.9629,5.7939,-0.411
2639.0,-1.5379,-8.9507,-5.5234,-1.9629,5.7939,-0.411
2643.0,-1.2744,-2.7301,0.0971,-1.9629,5.7939,-0.411
2649.0,-1.2744,-2.7301,0.0971,-1.9629,5.7939,-0.411
2653.0,-1.2744,-2.7301,0.0971,-1.9629,5.7939,-0.411
2659.0,-1.2744,-2.7301,0.0971,-4.1535,8.3192,-1.5002
2663.0,-1.2744,-2.7301,0.0971,-4.1535,8.3192,-1.5002
2669.0,0.8759,-3.0923,0.0497,-4.1535,8.3192,-1.5002
2673.0,0.8759,-3.0923,0.0497,-4.1535,8.3192,-1.5002
2678.0,0.8759,-3.0923,0.0497,-4.1535,8.3192,-1.5002
2684.0,0.8759,-3.0923,0.0497,-4.1535,8.3192,-1.5002
2689.0,0.8759,-3.0923,0.0497,-4.1535,8.3192,-1.5002
2694.0,2.8299,-11.7727,-11.3003,-5.8444,9.3699,0.0612
2698.0,2.8299,-11.7727,-11.3003,-5.8444,9.3699,0.0612
2704.0,2.8299,-11.7727,-11.3003,-5.8444,9.3699,0.0612
2709.0,2.8299,-11.7727,-11.3003,-5.8444,9.3699,0.0612
2713.0,2.8299,-11.7727,-11.3003,-5.8444,9.3699,0.0612
2719.0,2.8299,-11.7727,-11.3003,-5.8444,9.3699,0.0612
2723.0,-6.1547,-21.0489,-3.0781,-4.14,2.1128,-0.4648
2729.0,-6.1547,-21.0489,-3.0781,-4.14,2.1128,-0.4648
2734.0,-6.1547,-21.0489,-3.0781,-4.14,2.1128,-0.4648
2738.0,-6.1547,-21.0489,-3.0781,-4.14,2.1128,-0.4648
2744.0,-6.1547,-21.0489,-3.0781,-4.14,2.1128,-0.4648
2748.0,-7.0311,-32.9802,-11.3241,-4.14,2.1128,-0.4648
2753.0,-7.0311,-32.9802,-11.3241,0.2002,1.6217,-1.0262
2759.0,-7.0311,-32.9802,-11.3241,0.2002,1.6217,-1.0262
2763.0,-7.0311,-32.9802,-11.3241,0.2002,1.6217,-1.0262
2768.0,-7.0311,-32.9802,-11.3241,0.2002,1.6217,-1.0262
2774.0,-7.0311,-32.9802,-11.3241,0.2002,1.6217,-1.0262
2778.0,-5.2735,-28.0609,-8.5564,0.2002,1.6217,-1.0262
2783.0,-5.2735,-28.0609,-8.5564,1.3969,0.2057,-1.2827
2789.0,-5.2735,-28.0609,-8.5564,1.3969,0.2057,-1.2827
2793.0,-5.2735,-28.0609,-8.5564,1.3969,0.2057,-1.2827
2800.0,-5.2735,-28.0609,-8.5564,1.3969,0.2057,-1.2827
2803.0,-2.4526,-12.502,-2.7464,1.3969,0.2057,-1.2827
2808.0,-2.4526,-12.502,-2.7464,1.3969,0.2057,-1.2827
2814.0,-2.4526,-12.502,-2.7464,0.7121,-0.0955,-0.0384
2818.0,-2.4526,-12.502,-2.7464,0.7121,-0.0955,-0.0384
2823.0,-2.4526,-12.502,-2.7464,0.7121,-0.0955,-0.0384
2829.0,0.0426,-5.7808,-2.7653,0.7121,-0.0955,-0.0384
2834.0,0.0426,-5.7808,-2.7653,0.7121,-0.0955,-0.0384
2838.0,0.0426,-5.7808,-2.7653,0.7121,-0.0955,-0.0384
2844.0,0.0426,-5.7808,-2.7653,-0.352,-1.8395,0.6897
2848.0,0.0426,-5.7808,-2.7653,-0.352,-1.8395,0.6897
2854.0,0.0426,-5.7808,-2.7653,-0.352,-1.8395,0.6897
2858.0,0.2389,-2.3297,-0.8318,-0.352,-1.8395,0.6897
2864.0,0.2389,-2.3297,-0.8318,-0.352,-1.8395,0.6897
2868.0,0.2389,-2.3297,-0.8318,-0.352,-1.8395,0.6897
2874.0,0.2389,-2.3297,-0.8318,-0.352,-1.8395,0.6897
2879.0,0.2389,-2.3297,-0.8318,-0.9635,-3.3276,1.1424
2884.0,-0.0771,-3.1877,-1.3057,-0.9635,-3.3276,1.1424
2889.0,-0.0771,-3.1877,-1.3057,-0.9635,-3.3276,1.1424
2894.0,-0.0771,-3.1877,-1.3057,-0.9635,-3.3276,1.1424
2899.0,-0.0771,-3.1877,-1.3057,-0.9635,-3.3276,1.1424
2904.0,-0.0771,-3.1877,-1.3057,-0.9635,-3.3276,1.1424
2908.0,-0.0771,-3.1877,-1.3057,-0.867,-5.195,0.4747
2913.0,-0.0771,-3.1877,-1.3057,-0.867,-5.195,0.4747
2918.0,-0.0771,-3.1877,-1.3057,-0.867,-5.195,0.4747
2924.0,-1.4421,-8.4693,1.8031,-0.867,-5.195,0.4747
2928.0,-1.4421,-8.4693,1.8031,-0.867,-5.195,0.4747
2934.0,-1.4421,-8.4693,1.8031,-0.867,-5.195,0.4747
2938.0,-1.4421,-8.4693,1.8031,-0.867,-5.195,0.4747
2943.0,-1.4421,-8.4693,1.8031,0.6553,-3.1712,0.4924
2949.0,-1.0925,-16.959,-1.8364,0.6553,-3.1712,0.4924
2953.0,-1.0925,-16.959,-1.8364,0.6553,-3.1712,0.4924
2959.0,-1.0925,-16.959,-1.8364,0.6553,-3.1712,0.4924
2963.0,-1.0925,-16.959,-1.8364,0.6553,-3.1712,0.4924
2969.0,-1.0925,-16.959,-1.8364,0.6553,-3.1712,0.4924
2974.0,-0.0963,-14.2419,-4.9595,1.2979,-1.2964,1.3428
2978.0,-0.0963,-14.2419,-4.9595,1.2979,-1.2964,1.3428
2984.0,-0.0963,-14.2419,-4.9595,1.2979,-1.2964,1.3428
2988.0,-0.0963,-14.2419,-4.9595,1.2979,-1.2964,1.3428
2994.0,-0.0963,-14.2419,-4.9595,1.2979,-1.2964,1.3428
2998.0,0.464,-10.4475,-3.2534,1.2979,-1.2964,1.3428
3003.0,0.464,-10.4475,-3.2534,0.9961,0.9332,0.8614
3009.0,0.464,-10.4475,-3.2534,0.9961,0.9332,0.8614
3014.0,0.464,-10.4475,-3.2534,0.9961,0.9332,0.8614
3018.0,0.464,-10.4475,-3.2534,0.9961,0.9332,0.8614
3024.0,0.464,-10.4475,-3.2534,0.9961,0.9332,0.8614
3029.0,0.7466,-9.3941,-3.007,0.9961,0.9332,0.8614
3033.0,0.7466,-9.3941,-3.007,0.6693,2.2704,-0.521
3039.0,0.7466,-9.3941,-3.007,0.6693,2.2704,-0.521
3043.0,0.7466,-9.3941,-3.007,0.6693,2.2704,-0.521
3049.0,0.7466,-9.3941,-3.007,0.6693,2.2704,-0.521
3053.0,0.7466,-9.3941,-3.007,0.6693,2.2704,-0.521
3059.0,2.6958,-5.8762,-3.8316,0.6693,2.2704,-0.521
3064.0,2.6958,-5.8762,-3.8316,0.6693,2.2704,-0.521
3068.0,2.6958,-5.8762,-3.8316,-0.3062,1.6095,-1.1502
3074.0,2.6958,-5.8762,-3.8316,-0.3062,1.6095,-1.1502
3079.0,2.6958,-5.8762,-3.8316,-0.3062,1.6095,-1.1502
3084.0,2.4995,-5.0086,-2.2961,-0.3062,1.6095,-1.1502
3088.0,2.4995,-5.0086,-2.2961,-0.3062,1.6095,-1.1502
3094.0,2.4995,-5.0086,-2.2961,-0.3062,1.6095,-1.1502
3098.0,2.4995,-5.0086,-2.2961,-1.5402,1.0163,-1.0934
3103.0,2.4995,-5.0086,-2.2961,-1.5402,1.0163,-1.0934
3109.0,1.2542,-7.4349,-2.3767,-1.5402,1.0163,-1.0934
3114.0,1.2542,-7.4349,-2.3767,-1.5402,1.0163,-1.0934
3118.0,1.2542,-7.4349,-2.3767,-1.5402,1.0163,-1.0934
3123.0,1.2542,-7.4349,-2.3767,-1.5402,1.0163,-1.0934
3129.0,1.2542,-7.4349,-2.3767,-1.5402,1.0163,-1.0934
3133.0,1.2542,-7.4349,-2.3767,-1.5774,0.0016,-0.9034
3138.0,0.8855,-8.6314,-1.7606,-1.5774,0.0016,-0.9034
3144.0,0.8855,-8.6314,-1.7606,-1.5774,0.0016,-0.9034
3148.0,0.8855,-8.6314,-1.7606,-1.5774,0.0016,-0.9034
3153.0,0.8855,-8.6314,-1.7606,-1.5774,0.0016,-0.9034
3158.0,0.8855,-8.6314,-1.7606,-1.5774,0.0016,-0.9034
3163.0,0.4066,-9.8898,-0.7939,-1.5322,-1.1248,-0.295
3168.0,0.4066,-9.8898,-0.7939,-1.5322,-1.1248,-0.295
3174.0,0.4066,-9.8898,-0.7939,-1.5322,-1.1248,-0.295
3179.0,0.4066,-9.8898,-0.7939,-1.5322,-1.1248,-0.295
3184.0,0.4066,-9.8898,-0.7939,-1.5322,-1.1248,-0.295
3189.0,0.4066,-9.8898,-0.7939,-1.5322,-1.1248,-0.295
3194.0,0.4066,-10.8622,-0.7228,-1.4821,-2.0533,0.3953
3199.0,-0.4603,-10.8622,-0.7228,-1.4821,-2.0533,0.3953
3210.0,-0.4603,-10.8622,-0.7228,-1.4821,-2.0533,0.3953
3211.0,-0.4603,-10.8622,-0.7228,-1.4821,-2.0533,0.3953
3214.0,-0.4603,-10.8622,-0.7228,-1.4821,-2.0533,0.3953
3218.0,-0.4603,-10.8622,-0.7228,-1.4821,-2.0533,0.3953
3224.0,-0.7812,-9.8755,0.244,-1.4821,-2.0533,0.3953
3229.0,-0.7812,-9.8755,0.244,-1.4821,-2.0533,0.3953
3234.0,-0.7812,-9.8755,0.244,-0.9037,-1.6764,0.5633
3238.0,-0.7812,-9.8755,0.244,-0.9037,-1.6764,0.5633
3243.0,-0.7812,-9.8755,0.244,-0.9037,-1.6764,0.5633
3249.0,-0.7812,-9.8755,0.244,-0.9037,-1.6764,0.5633
3253.0,0.1671,-10.1043,-1.4905,-0.9037,-1.6764,0.5633
3259.0,0.1671,-10.1043,-1.4905,-0.9037,-1.6764,0.5633
3263.0,0.1671,-10.1043,-1.4905,-0.6764,-1.6324,0.5425
3269.0,0.1671,-10.1043,-1.4905,-0.6764,-1.6324,0.5425
3273.0,0.1671,-10.1043,-1.4905,-0.6764,-1.6324,0.5425
3279.0,0.5359,-11.0052,-2.7511,-0.6764,-1.6324,0.5425
3284.0,0.5359,-11.0052,-2.7511,-0.6764,-1.6324,0.5425
3288.0,0.5359,-11.0052,-2.7511,-0.6764,-1.6324,0.5425
3293.0,0.5359,-11.0052,-2.7511,-0.6764,-1.6324,0.5425
3299.0,0.5359,-11.0052,-2.7511,-0.6343,-1.6984,0.0257
3304.0,0.5263,-10.1091,-2.6231,-0.6343,-1.6984,0.0257
3309.0,0.5263,-10.1091,-2.6231,-0.6343,-1.6984,0.0257
3314.0,0.5263,-10.1091,-2.6231,-0.6343,-1.6984,0.0257
3318.0,0.5263,-10.1091,-2.6231,-0.6343,-1.6984,0.0257
3323.0,0.5263,-10.1091,-2.6231,-0.6343,-1.6984,0.0257
3328.0,0.2342,-7.2156,-1.2061,-0.5524,-0.7442,-0.1136
3333.0,0.2342,-7.2156,-1.2061,-0.5524,-0.7442,-0.1136
3338.0,0.2342,-7.2156,-1.2061,-0.5524,-0.7442,-0.1136
3344.0,0.2342,-7.2156,-1.2061,-0.5524,-0.7442,-0.1136
3349.0,0.2342,-7.2156,-1.2061,-0.5524,-0.7442,-0.1136
3354.0,0.2342,-7.2156,-1.2061,-0.5524,-0.7442,-0.1136
3358.0,0.67,-5.8619,-1.4336,-0.3288,0.7017,0.4637
3363.0,0.67,-5.8619,-1.4336,-0.3288,0.7017,0.4637
3368.0,0.67,-5.8619,-1.4336,-0.3288,0.7017,0.4637
3373.0,0.67,-5.8619,-1.4336,-0.3288,0.7017,0.4637
3378.0,0.67,-5.8619,-1.4336,-0.3288,0.7017,0.4637
3384.0,0.67,-5.8619,-1.4336,-0.3288,0.7017,0.4637
3388.0,1.2638,-7.3586,-3.116,-0.341,0.8269,0.4607
3393.0,1.2638,-7.3586,-3.116,-0.341,0.8269,0.4607
3399.0,1.2638,-7.3586,-3.116,-0.341,0.8269,0.4607
3404.0,1.2638,-7.3586,-3.116,-0.341,0.8269,0.4607
3408.0,1.2638,-7.3586,-3.116,-0.341,0.8269,0.4607
3413.0,1.4841,-11.7965,-4.2676,-0.341,0.8269,0.4607
3419.0,1.4841,-11.7965,-4.2676,-0.2891,-0.6452,-0.3799
3424.0,1.4841,-11.7965,-4.2676,-0.2891,-0.6452,-0.3799
3429.0,1.4841,-11.7965,-4.2676,-0.2891,-0.6452,-0.3799
3434.0,1.4841,-11.7965,-4.2676,-0.2891,-0.6452,-0.3799
3438.0,1.4841,-11.7965,-4.2676,-0.2891,-0.6452,-0.3799
3444.0,1.3069,-12.3161,-2.1587,-0.2891,-0.6452,-0.3799
3448.0,1.3069,-12.3161,-2.1587,-0.3178,-0.677,-0.3799
3454.0,1.3069,-12.3161,-2.1587,-0.3178,-0.677,-0.6688
3458.0,1.3069,-12.3161,-2.1587,-0.3178,-0.677,-0.6688
3464.0,1.3069,-12.3161,-2.1587,-0.3178,-0.677,-0.6688
3468.0,1.1728,-11.7298,-0.3626,-0.3178,-0.677,-0.6688
3474.0,1.1728,-11.7298,-0.3626,-0.3178,-0.677,-0.6688
3478.0,1.1728,-11.7298,-0.3626,-0.3178,-0.677,-0.6688
3484.0,1.1728,-11.7298,-0.3626,-0.3972,0.4549,-0.4074
3488.0,1.1728,-11.7298,-0.3626,-0.3972,0.4549,-0.4074
3494.0,1.034,-9.9375,0.3056,-0.3972,0.4549,-0.4074
3499.0,1.034,-9.9375,0.3056,-0.3972,0.4549,-0.4074
3504.0,1.034,-9.9375,0.3056,-0.3972,0.4549,-0.4074
3509.0,1.034,-9.9375,0.3056,-0.3972,0.4549,-0.4074
3513.0,1.034,-9.9375,0.3056,-0.2506,1.4097,-0.0543
3518.0,1.034,-9.9375,0.3056,-0.2506,1.4097,-0.0543
3524.0,1.1872,-9.2224,-0.064,-0.2506,1.4097,-0.0543
3528.0,1.1872,-9.2224,-0.064,-0.2506,1.4097,-0.0543
3534.0,1.1872,-9.2224,-0.064,-0.2506,1.4097,-0.0543
3539.0,1.1872,-9.2224,-0.064,-0.2506,1.4097,-0.0543
3543.0,1.1872,-9.2224,-0.064,-0.0442,1.3645,0.2328
3548.0,1.5464,-9.3226,-1.4857,-0.0442,1.3645,0.2328
3554.0,1.5464,-9.3226,-1.4857,-0.0442,1.3645,0.2328
3558.0,1.5464,-9.3226,-1.4857,-0.0442,1.3645,0.2328
3564.0,1.5464,-9.3226,-1.4857,-0.0442,1.3645,0.2328
3569.0,1.5464,-9.3226,-1.4857,-0.0442,1.3645,0.2328
3574.0,1.5464,-9.3226,-1.4857,0.133,0.1244,0.0813
3579.0,1.896,-10.643,-2.9122,0.133,0.1244,0.0813
3584.0,1.896,-10.643,-2.9122,0.133,0.1244,0.0813
3589.0,1.896,-10.643,-2.9122,0.133,0.1244,0.0813
3594.0,1.896,-10.643,-2.9122,0.133,0.1244,0.0813
3599.0,1.896,-10.643,-2.9122,0.133,0.1244,0.0813
3604.0,2.2887,-10.9576,-3.2582,0.2875,-1.4791,-0.2767
3609.0,2.2887,-10.9576,-3.2582,0.2875,-1.4791,-0.2767
3613.0,2.2887,-10.9576,-3.2582,0.2875,-1.4791,-0.2767
3619.0,2.2887,-10.9576,-3.2582,0.2875,-1.4791,-0.2767
3624.0,2.2887,-10.9576,-3.2582,0.2875,-1.4791,-0.2767
3629.0,2.2887,-10.9576,-3.2582,0.2875,-1.4791,-0.2767
3634.0,2.2839,-9.151,-2.0213,0.2875,-1.4791,-0.2767
3639.0,2.2839,-9.151,-2.0213,0.2784,-2.0576,-0.4483
3643.0,2.2839,-9.151,-2.0213,0.2784,-2.0576,-0.4483
3649.0,2.2839,-9.151,-2.0213,0.2784,-2.0576,-0.4483
3653.0,2.2839,-9.151,-2.0213,0.2784,-2.0576,-0.4483
3658.0,1.9008,-8.3215,-1.7511,0.2784,-2.0576,-0.4483
3663.0,1.9008,-8.3215,-1.7511,0.2784,-2.0576,-0.4483
3668.0,1.9008,-8.3215,-1.7511,0.4506,-1.2103,-0.3304
3674.0,1.9008,-8.3215,-1.7511,0.4506,-1.2103,-0.3304
3679.0,1.9008,-8.3215,-1.7511,0.4506,-1.2103,-0.3304
3684.0,1.6901,-8.2167,-2.3957,0.4506,-1.2103,-0.3304
3688.0,1.6901,-8.2167,-2.3957,0.4506,-1.2103,-0.3304
3694.0,1.6901,-8.2167,-2.3957,0.4506,-1.2103,-0.3304
3699.0,1.6901,-8.2167,-2.3957,0.918,0.1886,-0.0714
3704.0,1.6901,-8.2167,-2.3957,0.918,0.1886,-0.0714
3708.0,1.6805,-7.5636,-3.0307,0.918,0.1886,-0.0714
3714.0,1.6805,-7.5636,-3.0307,0.918,0.1886,-0.0714
3718.0,1.6805,-7.5636,-3.0307,0.918,0.1886,-0.0714
3724.0,1.6805,-7.5636,-3.0307,0.918,0.1886,-0.0714
3728.0,1.6805,-7.5636,-3.0307,0.918,0.1886,-0.0714
3733.0,1.7906,-6.4291,-4.2155,0.9442,1.2796,-0.1032
3738.0,1.7906,-6.4291,-4.2155,0.9442,1.2796,-0.1032
3744.0,1.7906,-6.4291,-4.2155,0.9442,1.2796,-0.1032
3748.0,1.7906,-6.4291,-4.2155,0.9442,1.2796,-0.1032
3754.0,1.7906,-6.4291,-4.2155,0.9442,1.2796,-0.1032
3758.0,1.7906,-6.4291,-4.2155,0.9442,1.2796,-0.1032
3763.0,1.6565,-5.8428,-4.097,0.8251,0.9363,0.0636
3769.0,1.6565,-5.8428,-4.097,0.8251,0.9363,0.0636
3774.0,1.6565,-5.8428,-4.097,0.8251,0.9363,0.0636
3778.0,1.6565,-5.8428,-4.097,0.8251,0.9363,0.0636
3784.0,1.6565,-5.8428,-4.097,0.8251,0.9363,0.0636
3789.0,1.35,-5.6044,-3.1729,0.8251,0.9363,0.0636
3794.0,1.35,-5.6044,-3.1729,0.8654,0.3114,0.8315
3800.0,1.35,-5.6044,-3.1729,0.8654,0.3114,0.8315
3804.0,1.35,-5.6044,-3.1729,0.8654,0.3114,0.8315
3808.0,1.35,-5.6044,-3.1729,0.8654,0.3114,0.8315
3814.0,1.034,-7.2585,-6.0352,0.8654,0.3114,0.8315
3818.0,1.034,-7.2585,-6.0352,0.8654,0.3114,0.8315
3823.0,1.034,-7.2585,-6.0352,0.8282,-0.666,1.0453
3829.0,1.034,-7.2585,-6.0352,0.8282,-0.666,1.0453
3834.0,1.034,-7.2585,-6.0352,0.8282,-0.666,1.0453
3839.0,1.034,-7.2585,-6.0352,0.8282,-0.666,1.0453
3844.0,0.9046,-9.4513,-5.6087,0.8282,-0.666,1.0453
3850.0,0.9046,-9.4513,-5.6087,0.8282,-0.666,1.0453
3854.0,0.9046,-9.4513,-5.6087,0.7915,-2.4027,-0.5051
3859.0,0.9046,-9.4513,-5.6087,0.7915,-2.4027,-0.5051
3864.0,0.9046,-9.4513,-5.6087,0.7915,-2.4027,-0.5051
3868.0,0.737,-3.7073,0.4857,0.7915,-2.4027,-0.5051
3874.0,0.737,-3.7073,0.4857,0.7915,-2.4027,-0.5051
3879.0,0.737,-3.7073,0.4857,0.7915,-2.4027,-0.5051
3884.0,0.737,-3.7073,0.4857,0.2038,-0.0869,-0.4734
3889.0,0.737,-3.7073,0.4857,0.2038,-0.0869,-0.4734
3894.0,0.737,-3.7073,0.4857,0.2038,-0.0869,-0.4734
3899.0,0.5263,-3.3212,0.8127,0.2038,-0.0869,-0.4734
3903.0,0.5263,-3.3212,0.8127,0.2038,-0.0869,-0.4734
3908.0,0.5263,-3.3212,0.8127,0.2038,-0.0869,-0.4734
3913.0,0.5263,-3.3212,0.8127,0.0591,1.2906,-0.3695
3919.0,0.5263,-3.3212,0.8127,0.0591,1.2906,-0.3695
3924.0,0.2342,-3.8741,0.2677,0.0591,1.2906,-0.3695
3929.0,0.2342,-3.8741,0.2677,0.0591,1.2906,-0.3695
3934.0,0.2342,-3.8741,0.2677,0.0591,1.2906,-0.3695
3939.0,0.2342,-3.8741,0.2677,0.0591,1.2906,-0.3695
3944.0,0.2342,-3.8741,0.2677,0.4066,1.7445,0.7362
3949.0,0.1767,-3.979,0.3435,0.4066,1.7445,0.7362
3953.0,0.1767,-3.979,0.3435,0.4066,1.7445,0.7362
3959.0,0.1767,-3.979,0.3435,0.4066,1.7445,0.7362
3963.0,0.1767,-3.979,0.3435,0.4066,1.7445,0.7362
3969.0,0.1767,-3.979,0.3435,0.4066,1.7445,0.7362
3973.0,0.1767,-3.979,0.3435,0.6254,1.3828,1.3281
3978.0,0.2054,-4.5844,-1.1493,0.6254,1.3828,1.3281
3983.0,0.2054,-4.5844,-1.1493,0.6254,1.3828,1.3281
3989.0,0.2054,-4.5844,-1.1493,0.6254,1.3828,1.3281
3993.0,0.2054,-4.5844,-1.1493,0.6254,1.3828,1.3281
3999.0,0.2054,-4.5844,-1.1493,0.6254,1.3828,1.3281
4003.0,-0.6327,-7.9449,-2.2393,0.6254,1.3828,1.3281
4008.0,-0.6327,-7.9449,-2.2393,0.4128,-0.4565,2.3983
4013.0,-0.6327,-7.9449,-2.2393,0.4128,-0.4565,2.3983
4018.0,-0.6327,-7.9449,-2.2393,0.4128,-0.4565,2.3983
4024.0,-0.6327,-7.9449,-2.2393,0.4128,-0.4565,2.3983
4028.0,-2.4239,-18.7608,-3.5472,0.4128,-0.4565,2.3983
4034.0,-2.4239,-18.7608,-3.5472,0.4128,-0.4565,2.3983
4038.0,-2.4239,-18.7608,-3.5472,0.8636,-2.8322,3.5309
4044.0,-2.4239,-18.7608,-3.5472,0.8636,-2.8322,3.5309
4048.0,-2.4239,-18.7608,-3.5472,0.8636,-2.8322,3.5309
4054.0,-2.4239,-18.7608,-3.5472,0.8636,-2.8322,3.5309
4059.0,-1.6672,-26.0445,-3.6799,0.8636,-2.8322,3.5309
4064.0,-1.6672,-26.0445,-3.6799,0.8636,-2.8322,3.5309
4069.0,-1.6672,-26.0445,-3.6799,0.8147,-2.8364,1.4655
4074.0,-1.6672,-26.0445,-3.6799,0.8147,-2.8364,1.4655
4079.0,-1.6672,-26.0445,-3.6799,0.8147,-2.8364,1.4655
4084.0,1.1345,-21.2586,0.6705,0.8147,-2.8364,1.4655
4088.0,1.1345,-21.2586,0.6705,0.8147,-2.8364,1.4655
4093.0,1.1345,-21.2586,0.6705,0.8147,-2.8364,1.4655
4099.0,1.1345,-21.2586,0.6705,-0.4418,-0.0594,-0.9504
4106.0,1.1345,-11.9348,-1.8175,-0.4418,-0.0594,-0.9504
4109.0,0.8472,-11.9348,-1.8175,-0.4418,-0.0594,-0.9504
4113.0,0.8472,-11.9348,-1.8175,-0.4418,-0.0594,-0.9504
4118.0,0.8472,-11.9348,-1.8175,-0.4418,-0.0594,-0.9504
4123.0,0.8472,-11.9348,-1.8175,-0.4418,-0.0594,-0.9504
4128.0,0.8472,-11.9348,-1.8175,-0.8707,-0.0271,-1.0775
4133.0,0.2916,-6.9916,-3.9169,-0.8707,-0.0271,-1.0775
4139.0,0.2916,-6.9916,-3.9169,-0.8707,-0.0271,-1.0775
4144.0,0.2916,-6.9916,-3.9169,-0.8707,-0.0271,-1.0775
4149.0,0.2916,-6.9916,-3.9169,-0.8707,-0.0271,-1.0775
4154.0,0.2916,-6.9916,-3.9169,-0.8707,-0.0271,-1.0775
4159.0,0.2916,-6.9916,-3.9169,-0.6703,-0.1669,0.2829
4164.0,-1.8492,-7.7114,3.1016,-0.6703,-0.1669,0.2829
4169.0,-1.8492,-7.7114,3.1016,-0.6703,-0.1669,0.2829
4173.0,-1.8492,-7.7114,3.1016,-0.6703,-0.1669,0.2829
4179.0,-1.8492,-7.7114,3.1016,-0.6703,-0.1669,0.2829
4184.0,-1.8492,-7.7114,3.1016,-0.6703,-0.1669,0.2829
4188.0,-3.147,-9.8946,5.7603,-0.6703,-0.1669,0.2829
4194.0,-3.147,-9.8946,5.7603,-0.6703,-0.1669,0.2829
4198.0,-3.147,-9.8946,5.7603,-0.6703,-0.1669,0.2829
4204.0,-3.147,-9.8946,5.7603,-0.1352,2.6889,0.6696
4209.0,-3.147,-9.8946,5.7603,-0.1352,2.6889,0.6696
4214.0,-3.147,-9.8946,5.7603,-0.1352,2.6889,0.6696
4218.0,-3.3961,-10.0662,3.2817,-0.1352,2.6889,0.6696
4223.0,-3.3961,-10.0662,3.2817,-0.1352,2.6889,0.6696
4229.0,-3.3961,-10.0662,3.2817,-0.1352,2.6889,0.6696
4233.0,-3.3961,-10.0662,3.2817,0.3535,4.1867,0.5175
4239.0,-3.3961,-10.0662,3.2817,0.3535,4.1867,0.5175
4243.0,-3.511,-9.3988,-4.3434,0.3535,4.1867,0.5175
4249.0,-3.511,-9.3988,-4.3434,0.3535,4.1867,0.5175
4253.0,-3.511,-9.3988,-4.3434,0.3535,4.1867,0.5175
4259.0,-3.511,-9.3988,-4.3434,0.3535,4.1867,0.5175
4264.0,-3.511,-9.3988,-4.3434,0.1251,0.9039,0.3647
4269.0,-3.511,-9.3988,-4.3434,0.1251,0.9039,0.3647
4273.0,-1.581,-9.9565,-1.0735,0.1251,0.9039,0.3647
4279.0,-1.581,-9.9565,-1.0735,0.1251,0.9039,0.3647
4283.0,-1.581,-9.9565,-1.0735,0.1251,0.9039,0.3647
4289.0,-1.581,-9.9565,-1.0735,0.1251,0.9039,0.3647
4294.0,-1.581,-9.9565,-1.0735,-0.0075,-0.4357,0.3904
4299.0,-0.6231,-10.1901,0.1303,-0.0075,-0.4357,0.3904
4304.0,-0.6231,-10.1901,0.1303,-0.0075,-0.4357,0.3904
4309.0,-0.6231,-10.1901,0.1303,-0.0075,-0.4357,0.3904
4313.0,-0.6231,-10.1901,0.1303,-0.0075,-0.4357,0.3904
4319.0,-0.6231,-10.1901,0.1303,-0.0075,-0.4357,0.3904
4324.0,0.1958,-10.581,-0.0925,-0.0203,-1.0295,0.4093
4329.0,0.1958,-10.581,-0.0925,-0.0203,-1.0295,0.4093
4333.0,0.1958,-10.581,-0.0925,-0.0203,-1.0295,0.4093
4338.0,0.1958,-10.581,-0.0925,-0.0203,-1.0295,0.4093
4344.0,0.1958,-10.581,-0.0925,-0.0203,-1.0295,0.4093
4348.0,0.1958,-10.581,-0.0925,-0.0203,-1.0295,0.4093
4354.0,1.2112,-10.3284,-0.4574,0.0377,-1.3703,0.0159
4359.0,1.2112,-10.3284,-0.4574,0.0377,-1.3703,0.0159
4363.0,1.2112,-10.3284,-0.4574,0.0377,-1.3703,0.0159
4368.0,1.2112,-10.3284,-0.4574,0.0377,-1.3703,0.0159
4373.0,1.2112,-10.3284,-0.4574,0.0377,-1.3703,0.0159
4378.0,2.1451,-9.6276,0.8885,0.0377,-1.3703,0.0159
4383.0,2.1451,-9.6276,0.8885,0.0377,-1.3703,0.0159
4389.0,2.1451,-9.6276,0.8885,-0.0649,-0.7234,-0.7165
4394.0,2.1451,-9.6276,0.8885,-0.0649,-0.7234,-0.7165
4399.0,2.1451,-9.6276,0.8885,-0.0649,-0.7234,-0.7165
4404.0,1.738,-10.0948,1.6942,-0.0649,-0.7234,-0.7165
4409.0,1.738,-10.0948,1.6942,-0.0649,-0.7234,-0.7165
4414.0,1.738,-10.0948,1.6942,-0.0649,-0.7234,-0.7165
4418.0,1.738,-10.0948,1.6942,0.2546,-0.4174,-0.6108
4423.0,1.738,-10.0948,1.6942,0.2546,-0.4174,-0.6108
4429.0,1.738,-10.0948,1.6942,0.2546,-0.4174,-0.6108
4440.0,1.9104,-10.0328,1.3529,0.2546,-0.4174,-0.6108
4442.0,1.9104,-10.0328,1.3529,0.2546,-0.4174,-0.6108
4444.0,1.9104,-10.0328,1.3529,0.2546,-0.4174,-0.6108
4448.0,1.9104,-10.0328,1.3529,0.2546,-0.4174,-0.6108
4453.0,1.9104,-10.0328,1.3529,0.3657,-0.6629,-0.3634
4459.0,1.8577,-9.3321,1.2202,0.3657,-0.6629,-0.3634
4464.0,1.8577,-9.3321,1.2202,0.3657,-0.6629,-0.3634
4469.0,1.8577,-9.3321,1.2202,0.3657,-0.6629,-0.3634
4474.0,1.8577,-9.3321,1.2202,0.3657,-0.6629,-0.3634
4478.0,1.8577,-9.3321,1.2202,0.3657,-0.6629,-0.3634
4484.0,1.8577,-9.3321,1.2202,0.1794,-0.6342,-0.1979
4488.0,1.4602,-8.7934,1.4335,0.1794,-0.6342,-0.1979
4494.0,1.4602,-8.7934,1.4335,0.1794,-0.6342,-0.1979
4499.0,1.4602,-8.7934,1.4335,0.1794,-0.6342,-0.1979
4503.0,1.4602,-8.7934,1.4335,0.1794,-0.6342,-0.1979
4509.0,1.4602,-8.7934,1.4335,0.1794,-0.6342,-0.1979
4514.0,0.9717,-8.6266,0.789,0.0157,-0.0399,-0.2357
4519.0,0.9717,-8.6266,0.789,0.0157,-0.0399,-0.2357
4523.0,0.9717,-8.6266,0.789,0.0157,-0.0399,-0.2357
4529.0,0.9717,-8.6266,0.789,0.0157,-0.0399,-0.2357
4534.0,0.9717,-8.6266,0.789,0.0157,-0.0399,-0.2357
4539.0,-0.58,-9.58,-1.9028,0.0157,-0.0399,-0.2357
4543.0,-0.58,-9.58,-1.9028,0.0157,-0.0399,-0.2357
4548.0,-0.58,-9.58,-1.9028,0.232,0.8752,-1.2137
4553.0,-0.58,-9.58,-1.9028,0.232,0.8752,-1.2137
4559.0,-0.58,-9.58,-1.9028,0.232,0.8752,-1.2137
4565.0,-0.58,-9.58,-1.9028,0.232,0.8752,-1.2137
4568.0,-0.5896,-9.8278,-1.7132,0.232,0.8752,-1.2137
4573.0,-0.5896,-9.8278,-1.7132,0.232,0.8752,-1.2137
4578.0,-0.5896,-9.8278,-1.7132,0.2564,0.6571,-1.4153
4584.0,-0.5896,-9.8278,-1.7132,0.2564,0.6571,-1.4153
4589.0,-0.5896,-9.8278,-1.7132,0.2564,0.6571,-1.4153
4593.0,-0.5896,-9.8278,-1.7132,0.2564,0.6571,-1.4153
4599.0,-1.4038,-10.2997,-4.5188,0.2564,0.6571,-1.4153
4603.0,-1.4038,-10.2997,-4.5188,0.2564,0.6571,-1.4153
4608.0,-1.4038,-10.2997,-4.5188,0.199,-0.8761,-0.9486
4613.0,-1.4038,-10.2997,-4.5188,0.199,-0.8761,-0.9486
4618.0,-1.4038,-10.2997,-4.5188,0.199,-0.8761,-0.9486
4623.0,-0.7716,-9.8946,-1.5663,0.199,-0.8761,-0.9486
4628.0,-0.7716,-9.8946,-1.5663,0.199,-0.8761,-0.9486
4634.0,-0.7716,-9.8946,-1.5663,0.199,-0.8761,-0.9486
4638.0,-0.7716,-9.8946,-1.5663,0.2045,-1.396,-0.4984
4644.0,-0.7716,-9.8946,-1.5663,0.2045,-1.396,-0.4984
4649.0,-0.7716,-9.8946,-1.5663,0.2045,-1.396,-0.4984
4654.0,-0.513,-9.0556,0.1587,0.2045,-1.396,-0.4984
4659.0,-0.513,-9.0556,0.1587,0.2045,-1.396,-0.4984
4665.0,-0.513,-9.0556,0.1587,0.2045,-1.396,-0.4984
4669.0,-0.513,-9.0556,0.1587,0.2973,-0.9928,-0.2095
4674.0,-0.513,-9.0556,0.1587,0.2973,-0.9928,-0.2095
4680.0,-1.6767,-8.7839,-5.2249,0.2973,-0.9928,-0.2095
4684.0,-1.6767,-8.7839,-5.2249,0.2973,-0.9928,-0.2095
4689.0,-1.6767,-8.7839,-5.2249,0.2973,-0.9928,-0.2095
4693.0,-1.6767,-8.7839,-5.2249,0.2973,-0.9928,-0.2095
4698.0,-1.6767,-8.7839,-5.2249,0.2973,-0.9928,-0.2095
4704.0,-0.9631,-8.9507,-1.7275,0.6205,-1.0063,-0.7794
4708.0,-0.9631,-8.9507,-1.7275,0.6205,-1.0063,-0.7794
4713.0,-0.9631,-8.9507,-1.7275,0.6205,-1.0063,-0.7794
4719.0,-0.9631,-8.9507,-1.7275,0.6205,-1.0063,-0.7794
4724.0,-0.9631,-8.9507,-1.7275,0.6205,-1.0063,-0.7794
4728.0,-0.9631,-8.9507,-1.7275,0.6205,-1.0063,-0.7794
4733.0,-0.2831,-8.374,1.5567,0.447,0.739,-0.0421
4739.0,-0.2831,-8.374,1.5567,0.447,0.739,-0.0421
4744.0,-0.2831,-8.374,1.5567,0.447,0.739,-0.0421
4748.0,-0.2831,-8.374,1.5567,0.447,0.739,-0.0421
4753.0,-0.2831,-8.374,1.5567,0.447,0.739,-0.0421
4759.0,-3.1183,-8.6218,-3.5235,0.447,0.739,-0.0421
4764.0,-3.1183,-8.6218,-3.5235,0.7469,0.0102,0.0392
4769.0,-3.1183,-8.6218,-3.5235,0.7469,0.0102,0.0392
4773.0,-3.1183,-8.6218,-3.5235,0.7469,0.0102,0.0392
4778.0,-3.1183,-8.6218,-3.5235,0.7469,0.0102,0.0392
4784.0,-5.7667,-9.089,-2.6421,0.7469,0.0102,0.0392
4789.0,-5.7667,-9.089,-2.6421,0.7469,0.0102,0.0392
4794.0,-5.7667,-9.089,-2.6421,0.7469,0.0102,0.0392
4798.0,-5.7667,-9.089,-2.6421,2.0615,-1.4076,-0.6059
4803.0,-5.7667,-9.089,-2.6421,2.0615,-1.4076,-0.6059
4809.0,-6.0924,-8.5694,-2.1113,2.0615,-1.4076,-0.6059
4814.0,-6.0924,-8.5694,-2.1113,2.0615,-1.4076,-0.6059
4818.0,-6.0924,-8.5694,-2.1113,2.0615,-1.4076,-0.6059
4823.0,-6.0924,-8.5694,-2.1113,2.0615,-1.4076,-0.6059
4829.0,-6.0924,-8.5694,-2.1113,2.8062,-1.1089,-1.0916
4833.0,-6.0924,-8.5694,-2.1113,2.8062,-1.1089,-1.0916
4838.0,-3.5829,-5.4567,-2.7084,2.8062,-1.1089,-1.0916
4844.0,-3.5829,-5.4567,-2.7084,2.8062,-1.1089,-1.0916
4849.0,-3.5829,-5.4567,-2.7084,2.8062,-1.1089,-1.0916
4854.0,-3.5829,-5.4567,-2.7084,2.8062,-1.1089,-1.0916
4859.0,-3.5829,-5.4567,-2.7084,1.8648,0.4476,-0.8747
4863.0,-3.0034,-4.5128,-0.8033,1.8648,0.4476,-0.8747
4869.0,-3.0034,-4.5128,-0.8033,1.8648,0.4476,-0.8747
4874.0,-3.0034,-4.5128,-0.8033,1.8648,0.4476,-0.8747
4879.0,-3.0034,-4.5128,-0.8033,1.8648,0.4476,-0.8747
4883.0,-3.0034,-4.5128,-0.8033,1.8648,0.4476,-0.8747
4889.0,-4.2964,-6.9964,-3.3766,1.1733,0.2283,-0.1142
4894.0,-4.2964,-6.9964,-3.3766,1.1733,0.2283,-0.1142
4899.0,-4.2964,-6.9964,-3.3766,1.1733,0.2283,-0.1142
4904.0,-4.2964,-6.9964,-3.3766,1.1733,0.2283,-0.1142
4908.0,-4.2964,-6.9964,-3.3766,1.1733,0.2283,-0.1142
4913.0,-4.2964,-6.9964,-3.3766,1.1733,0.2283,-0.1142
4918.0,-3.2668,-9.1366,-2.6373,1.1733,0.2283,-0.1142
4923.0,-3.2668,-9.1366,-2.6373,1.3749,-0.611,-0.6707
4929.0,-3.2668,-9.1366,-2.6373,1.3749,-0.611,-0.6707
4934.0,-3.2668,-9.1366,-2.6373,1.3749,-0.611,-0.6707
4938.0,-3.2668,-9.1366,-2.6373,1.3749,-0.611,-0.6707
4943.0,-4.3013,-10.5286,-2.1398,1.3749,-0.611,-0.6707
4949.0,-4.3013,-10.5286,-2.1398,1.3749,-0.611,-0.6707
4953.0,-4.3013,-10.5286,-2.1398,1.6449,0.18,-0.8649
4958.0,-4.3013,-10.5286,-2.1398,1.6449,0.18,-0.8649
4964.0,-4.3013,-10.5286,-2.1398,1.6449,0.18,-0.8649
4969.0,-5.4459,-9.4274,-3.9501,1.6449,0.18,-0.8649
4974.0,-5.4459,-9.4274,-3.9501,1.6449,0.18,-0.8649
4979.0,-5.4459,-9.4274,-3.9501,1.6895,0.1428,-1.0677
4991.0,-5.4459,-9.4274,-3.9501,1.6895,0.1428,-1.0677
4991.0,-5.4459,-9.4274,-3.9501,1.6895,0.1428,-1.0677
4994.0,-5.4459,-9.4274,-3.9501,1.6895,0.1428,-1.0677
4999.0,-4.8855,-7.0249,-3.2487,1.6895,0.1428,-1.0677
5004.0,-4.8855,-7.0249,-3.2487,1.6895,0.1428,-1.0677
5009.0,-4.8855,-7.0249,-3.2487,1.6895,0.1428,-1.0677
5013.0,-4.8855,-7.0249,-3.2487,1.6895,0.1428,-1.0677
5019.0,-4.8855,-7.0249,-3.2487,1.2692,0.2601,-0.8252
5024.0,-5.6087,-5.9715,-3.1634,1.2692,0.2601,-0.8252
5028.0,-5.6087,-5.9715,-3.1634,1.2692,0.2601,-0.8252
5034.0,-5.6087,-5.9715,-3.1634,1.2692,0.2601,-0.8252
5038.0,-5.6087,-5.9715,-3.1634,1.2692,0.2601,-0.8252
5044.0,-5.6087,-5.9715,-3.1634,1.2961,0.0658,-0.9089
5048.0,-5.7667,-6.6102,-3.8316,1.2961,0.0658,-0.9089
5054.0,-5.7667,-6.6102,-3.8316,1.2961,0.0658,-0.9089
5058.0,-5.7667,-6.6102,-3.8316,1.2961,0.0658,-0.9089
5064.0,-5.7667,-6.6102,-3.8316,1.2961,0.0658,-0.9089
5068.0,-5.7667,-6.6102,-3.8316,1.2961,0.0658,-0.9089
5074.0,-5.7667,-6.6102,-3.8316,1.2961,0.0658,-0.9089
5079.0,-6.0828,-7.8687,-3.424,1.2985,-0.1266,-0.6285
5084.0,-6.0828,-7.8687,-3.424,1.2985,-0.1266,-0.6285
5088.0,-6.0828,-7.8687,-3.424,1.2985,-0.1266,-0.6285
5093.0,-6.0828,-7.8687,-3.424,1.2985,-0.1266,-0.6285
5099.0,-6.0828,-7.8687,-3.424,1.2985,-0.1266,-0.6285
5103.0,-6.5378,-7.2538,-3.4667,1.2985,-0.1266,-0.6285
5109.0,-6.5378,-7.2538,-3.4667,1.1971,-0.1736,-0.8032
5113.0,-6.5378,-7.2538,-3.4667,1.1971,-0.1736,-0.8032
5119.0,-6.5378,-7.2538,-3.4667,1.1971,-0.1736,-0.8032
5123.0,-6.5378,-7.2538,-3.4667,1.1971,-0.1736,-0.8032
5128.0,-6.5378,-7.2538,-3.4667,1.1971,-0.1736,-0.8032
5134.0,-7.0407,-5.9667,-3.3814,1.1971,-0.1736,-0.8032
5138.0,-7.0407,-5.9667,-3.3814,1.2136,0.0915,-0.7574
5144.0,-7.0407,-5.9667,-3.3814,1.2136,0.0915,-0.7574
5148.0,-7.0407,-5.9667,-3.3814,1.2136,0.0915,-0.7574
5154.0,-7.0407,-5.9667,-3.3814,1.2136,0.0915,-0.7574
5158.0,-6.9257,-5.2183,-3.7131,1.2136,0.0915,-0.7574
5164.0,-6.9257,-5.2183,-3.7131,1.2136,0.0915,-0.7574
5169.0,-6.9257,-5.2183,-3.7131,1.1709,0.1947,-0.6334
5173.0,-6.9257,-5.2183,-3.7131,1.1709,0.1947,-0.6334
5179.0,-6.9257,-5.2183,-3.7131,1.1709,0.1947,-0.6334
5184.0,-6.7677,-5.6807,-4.6515,1.1709,0.1947,-0.6334
5188.0,-6.7677,-5.6807,-4.6515,1.1709,0.1947,-0.6334
5194.0,-6.7677,-5.6807,-4.6515,1.1709,0.1947,-0.6334
5198.0,-6.7677,-5.6807,-4.6515,1.0725,-0.3807,-0.444
5204.0,-6.7677,-5.6807,-4.6515,1.0725,-0.3807,-0.444
5208.0,-6.7677,-5.6807,-4.6515,1.0725,-0.3807,-0.444
5214.0,-6.8683,-5.4042,-4.1396,1.0725,-0.3807,-0.444
5218.0,-6.8683,-5.4042,-4.1396,1.0725,-0.3807,-0.444
5223.0,-6.8683,-5.4042,-4.1396,1.0725,-0.3807,-0.444
5229.0,-6.8683,-5.4042,-4.1396,1.0725,-0.3807,-0.444
5234.0,-6.8683,-5.4042,-4.1396,1.0407,-0.4944,-0.4941
5238.0,-7.3376,-4.7083,-4.5519,1.0407,-0.4944,-0.4941
5243.0,-7.3376,-4.7083,-4.5519,1.0407,-0.4944,-0.4941
5249.0,-7.3376,-4.7083,-4.5519,1.0407,-0.4944,-0.4941
5253.0,-7.3376,-4.7083,-4.5519,1.0407,-0.4944,-0.4941
5259.0,-7.3376,-4.7083,-4.5519,1.0407,-0.4944,-0.4941
5264.0,-7.328,-4.4509,-5.1064,1.0597,-0.2885,-0.6157
5268.0,-7.328,-4.4509,-5.1064,1.0597,-0.2885,-0.6157
5274.0,-7.328,-4.4509,-5.1064,1.0597,-0.2885,-0.6157
5278.0,-7.328,-4.4509,-5.1064,1.0597,-0.2885,-0.6157
5283.0,-7.328,-4.4509,-5.1064,1.0597,-0.2885,-0.6157
5288.0,-7.328,-4.4509,-5.1064,1.0597,-0.2885,-0.6157
5293.0,-7.783,-4.6225,-5.2533,0.9675,-0.3398,-0.5998
5298.0,-7.783,-4.6225,-5.2533,0.9675,-0.3398,-0.5998
5304.0,-7.783,-4.6225,-5.2533,0.9675,-0.3398,-0.5998
5309.0,-7.783,-4.6225,-5.2533,0.9675,-0.3398,-0.5998
5314.0,-7.783,-4.6225,-5.2533,0.9675,-0.3398,-0.5998
5320.0,-8.3673,-4.5176,-4.5472,0.9675,-0.3398,-0.5998
5324.0,-8.3673,-4.5176,-4.5472,0.9675,-0.3398,-0.5998
5330.0,-8.3673,-4.5176,-4.5472,0.9675,-0.3398,-0.5998
5334.0,-8.3673,-4.5176,-4.5472,0.9284,-0.5139,-0.5778
5338.0,-8.3673,-4.5176,-4.5472,0.9284,-0.5139,-0.5778
5343.0,-8.8606,-4.5033,-3.8363,0.9284,-0.5139,-0.5778
5349.0,-8.8606,-4.5033,-3.8363,0.9284,-0.5139,-0.5778
5354.0,-8.8606,-4.5033,-3.8363,0.9284,-0.5139,-0.5778
5359.0,-8.8606,-4.5033,-3.8363,0.9284,-0.5139,-0.5778
5363.0,-8.8606,-4.5033,-3.8363,0.9284,-0.5139,-0.5778
5369.0,-9.8089,-4.0981,-3.9832,1.0078,-0.3044,-0.4123
5373.0,-9.8089,-4.0981,-3.9832,1.0078,-0.3044,-0.4123
5379.0,-9.8089,-4.0981,-3.9832,1.0078,-0.3044,-0.4123
5384.0,-9.8089,-4.0981,-3.9832,1.0078,-0.3044,-0.4123
5388.0,-9.8089,-4.0981,-3.9832,1.0078,-0.3044,-0.4123
5394.0,-9.8089,-4.0981,-3.9832,1.0078,-0.3044,-0.4123
5398.0,-10.1393,-3.9933,-3.86,0.8593,-0.5365,-0.1948
5403.0,-10.1393,-3.9933,-3.86,0.8593,-0.5365,-0.1948
5409.0,-10.1393,-3.9933,-3.86,0.8593,-0.5365,-0.1948
5414.0,-10.1393,-3.9933,-3.86,0.8593,-0.5365,-0.1948
5419.0,-10.1393,-3.9933,-3.86,0.8593,-0.5365,-0.1948
5423.0,-10.6613,-4.2173,-3.4809,0.8593,-0.5365,-0.1948
5428.0,-10.6613,-4.2173,-3.4809,0.8593,-0.5365,-0.1948
5434.0,-10.6613,-4.2173,-3.4809,0.7372,-0.7308,-0.0042
5439.0,-10.6613,-4.2173,-3.4809,0.7372,-0.7308,-0.0042
5444.0,-10.6613,-4.2173,-3.4809,0.7372,-0.7308,-0.0042
5449.0,-10.9726,-4.1553,-3.1823,0.7372,-0.7308,-0.0042
5454.0,-10.9726,-4.1553,-3.1823,0.7372,-0.7308,-0.0042
5459.0,-10.9726,-4.1553,-3.1823,0.7372,-0.7308,-0.0042
5464.0,-10.9726,-4.1553,-3.1823,0.4079,-0.4895,0.2267
5469.0,-10.9726,-4.1553,-3.1823,0.4079,-0.4895,0.2267
5474.0,-10.9726,-4.1553,-3.1823,0.4079,-0.4895,0.2267
5478.0,-11.0972,-3.7263,-3.4525,0.4079,-0.4895,0.2267
5483.0,-11.0972,-3.7263,-3.4525,0.4079,-0.4895,0.2267
5488.0,-11.0972,-3.7263,-3.4525,0.4079,-0.4895,0.2267
5494.0,-11.0972,-3.7263,-3.4525,0.4079,-0.4895,0.2267
5498.0,-11.0972,-3.7263,-3.4525,-0.0234,-0.2653,0.4014
5505.0,-11.145,-4.1982,-3.4003,-0.0234,-0.2653,0.4014
5508.0,-11.145,-4.1982,-3.4003,-0.0234,-0.2653,0.4014
5514.0,-11.145,-4.1982,-3.4003,-0.0234,-0.2653,0.4014
5518.0,-11.145,-4.1982,-3.4003,-0.0234,-0.2653,0.4014
5524.0,-11.145,-4.1982,-3.4003,-0.0234,-0.2653,0.4014
5528.0,-11.0205,-4.7321,-3.097,-0.4785,-0.2427,0.5956
5534.0,-11.0205,-4.7321,-3.097,-0.4785,-0.2427,0.5956
5538.0,-11.0205,-4.7321,-3.097,-0.4785,-0.2427,0.5956
5543.0,-11.0205,-4.7321,-3.097,-0.4785,-0.2427,0.5956
5549.0,-11.0205,-4.7321,-3.097,-0.4785,-0.2427,0.5956
5553.0,-11.0205,-4.7321,-3.097,-0.4785,-0.2427,0.5956
5558.0,-10.374,-4.2411,-3.2629,-0.8108,-0.0594,0.5975
5564.0,-10.374,-4.2411,-3.2629,-0.8108,-0.0594,0.5975
5569.0,-10.374,-4.2411,-3.2629,-0.8108,-0.0594,0.5975
5573.0,-10.374,-4.2411,-3.2629,-0.8108,-0.0594,0.5975
5579.0,-10.374,-4.2411,-3.2629,-0.8108,-0.0594,0.5975
5583.0,-9.4066,-4.3365,-3.5852,-0.8108,-0.0594,0.5975
5588.0,-9.4066,-4.3365,-3.5852,-1.0533,0.2656,0.6152
5594.0,-9.4066,-4.3365,-3.5852,-1.0533,0.2656,0.6152
5599.0,-9.4066,-4.3365,-3.5852,-1.0533,0.2656,0.6152
5604.0,-9.4066,-4.3365,-3.5852,-1.0533,0.2656,0.6152
5609.0,-8.6451,-4.5271,-3.6089,-1.0533,0.2656,0.6152
5614.0,-8.6451,-4.5271,-3.6089,-1.0533,0.2656,0.6152
5619.0,-8.6451,-4.5271,-3.6089,-1.2079,0.1593,0.5559
5623.0,-8.6451,-4.5271,-3.6089,-1.2079,0.1593,0.5559
5628.0,-8.6451,-4.5271,-3.6089,-1.2079,0.1593,0.5559
5634.0,-8.6451,-4.5271,-3.6089,-1.2079,0.1593,0.5559
5639.0,-8.6738,-5.0134,-3.6847,-1.2079,0.1593,0.5559
5644.0,-8.6738,-5.0134,-3.6847,-1.2079,0.1593,0.5559
5649.0,-8.6738,-5.0134,-3.6847,-1.3025,0.1281,0.5339
5654.0,-8.6738,-5.0134,-3.6847,-1.3025,0.1281,0.5339
5659.0,-8.6738,-5.0134,-3.6847,-1.3025,0.1281,0.5339
5664.0,-7.7303,-5.5901,-3.552,-1.3025,0.1281,0.5339
5669.0,-7.7303,-5.5901,-3.552,-1.3025,0.1281,0.5339
5674.0,-7.7303,-5.5901,-3.552,-1.3025,0.1281,0.5339
5678.0,-7.7303,-5.5901,-3.552,-1.4834,0.3486,0.5016
5683.0,-7.7303,-5.5901,-3.552,-1.4834,0.3486,0.5016
5689.0,-7.0742,-5.5759,-3.5141,-1.4834,0.3486,0.5016
5694.0,-7.0742,-5.5759,-3.5141,-1.4834,0.3486,0.5016
5699.0,-7.0742,-5.5759,-3.5141,-1.4834,0.3486,0.5016
5703.0,-7.0742,-5.5759,-3.5141,-1.4834,0.3486,0.5016
5709.0,-7.0742,-5.5759,-3.5141,-1.4834,0.3486,0.5016
5715.0,-7.0742,-5.5759,-3.5141,-1.4382,0.2246,0.4814
5718.0,-6.5618,-5.5472,-3.6847,-1.4382,0.2246,0.4814
5724.0,-6.5618,-5.5472,-3.6847,-1.4382,0.2246,0.4814
5728.0,-6.5618,-5.5472,-3.6847,-1.4382,0.2246,0.4814
5734.0,-6.5618,-5.5472,-3.6847,-1.4382,0.2246,0.4814
5738.0,-6.5618,-5.5472,-3.6847,-1.4382,0.2246,0.4814
5744.0,-6.193,-6.0811,-3.225,-1.4937,-0.1248,0.515
5748.0,-6.193,-6.0811,-3.225,-1.4937,-0.1248,0.515
5754.0,-6.193,-6.0811,-3.225,-1.4937,-0.1248,0.515
5759.0,-6.193,-6.0811,-3.225,-1.4937,-0.1248,0.515
5764.0,-6.193,-6.0811,-3.225,-1.4937,-0.1248,0.515
5769.0,-6.193,-6.0811,-3.225,-1.4937,-0.1248,0.515
5773.0,-6.0876,-6.8724,-3.1444,-1.5512,-0.3703,0.5101
5779.0,-6.0876,-6.8724,-3.1444,-1.5512,-0.3703,0.5101
5784.0,-6.0876,-6.8724,-3.1444,-1.5512,-0.3703,0.5101
5788.0,-6.0876,-6.8724,-3.1444,-1.5512,-0.3703,0.5101
5794.0,-6.0876,-6.8724,-3.1444,-1.5512,-0.3703,0.5101
5799.0,-5.8577,-7.3348,-2.7132,-1.5512,-0.3703,0.5101
5804.0,-5.8577,-7.3348,-2.7132,-1.5945,-0.52,0.5981
5809.0,-5.8577,-7.3348,-2.7132,-1.5945,-0.52,0.5981
5813.0,-5.8577,-7.3348,-2.7132,-1.5945,-0.52,0.5981
5819.0,-5.8577,-7.3348,-2.7132,-1.5945,-0.52,0.5981
5824.0,-5.7236,-7.5016,-2.6279,-1.5945,-0.52,0.5981
5828.0,-5.7236,-7.5016,-2.6279,-1.5945,-0.52,0.5981
5834.0,-5.7236,-7.5016,-2.6279,-1.6202,-0.4736,0.4374
5838.0,-5.7236,-7.5016,-2.6279,-1.6202,-0.4736,0.4374
5844.0,-5.7236,-7.5016,-2.6279,-1.6202,-0.4736,0.4374
5848.0,-5.7236,-7.5016,-2.6279,-1.6202,-0.4736,0.4374
5854.0,-5.3166,-7.4826,-2.5663,-1.6202,-0.4736,0.4374
5859.0,-5.3166,-7.4826,-2.5663,-1.6202,-0.4736,0.4374
5863.0,-5.3166,-7.4826,-2.5663,-1.7625,-0.5463,0.5437
5868.0,-5.3166,-7.4826,-2.5663,-1.7625,-0.5463,0.5437
5873.0,-5.3166,-7.4826,-2.5663,-1.7625,-0.5463,0.5437
5879.0,-4.694,-7.4254,-2.026,-1.7625,-0.5463,0.5437
5884.0,-4.694,-7.4254,-2.026,-1.7625,-0.5463,0.5437
5889.0,-4.694,-7.4254,-2.026,-1.7625,-0.5463,0.5437
5894.0,-4.694,-7.4254,-2.026,-1.7625,-0.5463,0.5437
5899.0,-4.694,-7.4254,-2.026,-1.9409,-0.4821,0.5578
5903.0,-4.2246,-7.6017,-1.1872,-1.9409,-0.4821,0.5578
5909.0,-4.2246,-7.6017,-1.1872,-1.9409,-0.4821,0.5578
5914.0,-4.2246,-7.6017,-1.1872,-1.9409,-0.4821,0.5578
5919.0,-4.2246,-7.6017,-1.1872,-1.9409,-0.4821,0.5578
5924.0,-4.2246,-7.6017,-1.1872,-1.9409,-0.4821,0.5578
5929.0,-3.8127,-7.7924,-1.282,-2.0093,-0.2445,0.5798
5934.0,-3.8127,-7.7924,-1.282,-2.0093,-0.2445,0.5798
5939.0,-3.8127,-7.7924,-1.282,-2.0093,-0.2445,0.5798
5944.0,-3.8127,-7.7924,-1.282,-2.0093,-0.2445,0.5798
5948.0,-3.8127,-7.7924,-1.282,-2.0093,-0.2445,0.5798
5953.0,-3.8127,-7.7924,-1.282,-2.0093,-0.2445,0.5798
5958.0,-3.4296,-7.4397,-1.4857,-1.9898,-0.1303,0.4863
5963.0,-3.4296,-7.4397,-1.4857,-1.9898,-0.1303,0.4863
5968.0,-3.4296,-7.4397,-1.4857,-1.9898,-0.1303,0.4863
5974.0,-3.4296,-7.4397,-1.4857,-1.9898,-0.1303,0.4863
5979.0,-3.4296,-7.4397,-1.4857,-1.9898,-0.1303,0.4863
5984.0,-3.329,-6.8772,-1.4573,-1.9898,-0.1303,0.4863
5989.0,-3.329,-6.8772,-1.4573,-1.9012,0.1031,0.4014
5993.0,-3.329,-6.8772,-1.4573,-1.9012,0.1031,0.4014
5999.0,-3.329,-6.8772,-1.4573,-1.9012,0.1031,0.4014
6006.0,-3.329,-6.8772,-1.4573,-1.9012,0.1031,0.4014
6009.0,-3.7409,-6.8295,-0.8934,-1.9012,0.1031,0.4014
6014.0,-3.7409,-6.8295,-0.8934,-1.9012,0.1031,0.4014
6018.0,-3.7409,-6.8295,-0.8934,-1.6703,0.1684,0.6292
6023.0,-3.7409,-6.8295,-0.8934,-1.6703,0.1684,0.6292
6029.0,-3.7409,-6.8295,-0.8934,-1.6703,0.1684,0.6292
6034.0,-3.7409,-6.8295,-0.8934,-1.6703,0.1684,0.6292
6050.0,-3.9037,-6.7723,-1.2678,-1.4039,0.086,0.5523
6051.0,-3.9037,-6.7723,-1.2678,-1.4039,0.086,0.5523
6054.0,-3.9037,-6.7723,-1.2678,-1.4039,0.086,0.5523
6055.0,-3.9037,-6.7723,-1.2678,-1.4039,0.086,0.5523
6058.0,-3.9037,-6.7723,-1.2678,-1.4039,0.086,0.5523
6063.0,-4.8999,-6.9535,-0.3294,-1.4039,0.086,0.5523
6069.0,-4.8999,-6.9535,-0.3294,-1.4039,0.086,0.5523
6074.0,-4.8999,-6.9535,-0.3294,-1.4039,0.086,0.5523
6079.0,-4.8999,-6.9535,-0.3294,-1.4039,0.086,0.5523
6084.0,-4.8999,-6.9535,-0.3294,-0.7485,0.5252,0.6048
6089.0,-4.8999,-6.9535,-0.3294,-0.7485,0.5252,0.6048
6094.0,-5.4986,-7.249,-0.6185,-0.7485,0.5252,0.6048
6098.0,-5.4986,-7.249,-0.6185,-0.7485,0.5252,0.6048
6103.0,-5.4986,-7.249,-0.6185,-0.7485,0.5252,0.6048
6108.0,-5.4986,-7.249,-0.6185,-0.7485,0.5252,0.6048
6113.0,-5.4986,-7.249,-0.6185,-0.1614,0.5429,0.4741
6118.0,-5.4842,-8.25,-1.7511,-0.1614,0.5429,0.4741
6124.0,-5.4842,-8.25,-1.7511,-0.1614,0.5429,0.4741
6129.0,-5.4842,-8.25,-1.7511,-0.1614,0.5429,0.4741
6133.0,-5.4842,-8.25,-1.7511,-0.1614,0.5429,0.4741
6138.0,-5.4842,-8.25,-1.7511,-0.1614,0.5429,0.4741
6143.0,-4.7993,-9.599,-2.988,0.2045,0.089,0.0202
6148.0,-4.7993,-9.599,-2.988,0.2045,0.089,0.0202
6153.0,-4.7993,-9.599,-2.988,0.2045,0.089,0.0202
6159.0,-4.7993,-9.599,-2.988,0.2045,0.089,0.0202
6164.0,-4.7993,-9.599,-2.988,0.2045,0.089,0.0202
6169.0,-4.7993,-9.599,-2.988,0.2045,0.089,0.0202
6174.0,-2.8884,-10.2759,-3.8979,0.3706,-0.316,-0.3683
6179.0,-2.8884,-10.2759,-3.8979,0.3706,-0.316,-0.3683
6184.0,-2.8884,-10.2759,-3.8979,0.3706,-0.316,-0.3683
6189.0,-2.8884,-10.2759,-3.8979,0.3706,-0.316,-0.3683
6193.0,-2.8884,-10.2759,-3.8979,0.3706,-0.316,-0.3683
6198.0,-2.8884,-10.2759,-3.8979,0.3706,-0.316,-0.3683
6203.0,-2.1557,-9.9136,-3.4382,0.345,-0.3404,-0.3292
6209.0,-2.1557,-9.9136,-3.4382,0.345,-0.3404,-0.3292
6213.0,-2.1557,-9.9136,-3.4382,0.345,-0.3404,-0.3292
6218.0,-2.1557,-9.9136,-3.4382,0.345,-0.3404,-0.3292
6224.0,-2.1557,-9.9136,-3.4382,0.345,-0.3404,-0.3292
6229.0,-2.9603,-8.3787,-0.5237,0.345,-0.3404,-0.3292
6234.0,-2.9603,-8.3787,-0.5237,0.6119,-0.4516,-0.0745
6238.0,-2.9603,-8.3787,-0.5237,0.6119,-0.4516,-0.0745
6244.0,-2.9603,-8.3787,-0.5237,0.6119,-0.4516,-0.0745
6249.0,-2.9603,-8.3787,-0.5237,0.6119,-0.4516,-0.0745
6253.0,-3.0129,-7.8448,-0.8934,0.6119,-0.4516,-0.0745
6258.0,-3.0129,-7.8448,-0.8934,0.6119,-0.4516,-0.0745
6264.0,-3.0129,-7.8448,-0.8934,0.9668,-0.721,-0.0812
6268.0,-3.0129,-7.8448,-0.8934,0.9668,-0.721,-0.0812
6274.0,-3.0129,-7.8448,-0.8934,0.9668,-0.721,-0.0812
6279.0,-3.0129,-7.8448,-0.8934,0.9668,-0.721,-0.0812
6283.0,-3.6834,-8.1309,-3.7984,0.9668,-0.721,-0.0812
6289.0,-3.6834,-8.1309,-3.7984,0.9668,-0.721,-0.0812
6294.0,-3.6834,-8.1309,-3.7984,0.9668,-0.721,-0.0812
6299.0,-3.6834,-8.1309,-3.7984,1.4067,-0.8737,-0.7415
6303.0,-3.6834,-8.1309,-3.7984,1.4067,-0.8737,-0.7415
6308.0,-4.852,-7.9926,-1.4573,1.4067,-0.8737,-0.7415
6313.0,-4.852,-7.9926,-1.4573,1.4067,-0.8737,-0.7415
6319.0,-4.852,-7.9926,-1.4573,1.4067,-0.8737,-0.7415
6324.0,-4.852,-7.9926,-1.4573,1.4067,-0.8737,-0.7415
6329.0,-4.852,-7.9926,-1.4573,1.6889,0.2876,-0.0036
6334.0,-4.6317,-6.696,1.0733,1.6889,0.2876,-0.0036
6339.0,-4.6317,-6.696,1.0733,1.6889,0.2876,-0.0036
6343.0,-4.6317,-6.696,1.0733,1.6889,0.2876,-0.0036
6350.0,-4.6317,-6.696,1.0733,1.6889,0.2876,-0.0036
6354.0,-4.6317,-6.696,1.0733,1.6889,0.2876,-0.0036
6358.0,-4.6317,-6.696,1.0733,1.8159,0.089,-0.0543
6363.0,-6.466,-6.1955,-3.8932,1.8159,0.089,-0.0543
6368.0,-6.466,-6.1955,-3.8932,1.8159,0.089,-0.0543
6374.0,-6.466,-6.1955,-3.8932,1.8159,0.089,-0.0543
6379.0,-6.466,-6.1955,-3.8932,1.8159,0.089,-0.0543
6384.0,-6.466,-6.1955,-3.8932,1.8159,0.089,-0.0543
6388.0,-5.4411,-5.4281,-1.2204,1.8159,0.089,-0.0543
6394.0,-5.4411,-5.4281,-1.2204,2.1965,0.0762,-1.1435
6398.0,-5.4411,-5.4281,-1.2204,2.1965,0.0762,-1.1435
6404.0,-5.4411,-5.4281,-1.2204,2.1965,0.0762,-1.1435
6409.0,-5.4411,-5.4281,-1.2204,2.1965,0.0762,-1.1435
6414.0,-5.4411,-5.4281,-1.2204,2.1965,0.0762,-1.1435
6418.0,-3.5493,-4.7655,-2.2914,2.1965,0.0762,-1.1435
6424.0,-3.5493,-4.7655,-2.2914,1.7335,0.2418,-0.361
6428.0,-3.5493,-4.7655,-2.2914,1.7335,0.2418,-0.361
6434.0,-3.5493,-4.7655,-2.2914,1.7335,0.2418,-0.361
6438.0,-3.5493,-4.7655,-2.2914,1.7335,0.2418,-0.361
6443.0,-3.6786,-5.7808,-1.7606,1.7335,0.2418,-0.361
6449.0,-3.6786,-5.7808,-1.7606,1.7335,0.2418,-0.361
6454.0,-3.6786,-5.7808,-1.7606,1.5881,0.2637,-0.3427
6459.0,-3.6786,-5.7808,-1.7606,1.5881,0.2637,-0.3427
6464.0,-3.6786,-5.7808,-1.7606,1.5881,0.2637,-0.3427
6469.0,-5.738,-6.7771,-0.4574,1.5881,0.2637,-0.3427
6474.0,-5.738,-6.7771,-0.4574,1.5881,0.2637,-0.3427
6479.0,-5.738,-6.7771,-0.4574,1.5881,0.2637,-0.3427
6483.0,-5.738,-6.7771,-0.4574,1.5881,0.2637,-0.3427
6489.0,-5.738,-6.7771,-0.4574,2.0169,-0.3013,-0.3261
6494.0,-5.738,-6.7771,-0.4574,2.0169,-0.3013,-0.3261
6499.0,-6.5522,-8.3454,-1.8744,2.0169,-0.3013,-0.3261
6503.0,-6.5522,-8.3454,-1.8744,2.0169,-0.3013,-0.3261
6509.0,-6.5522,-8.3454,-1.8744,2.0169,-0.3013,-0.3261
6514.0,-6.5522,-8.3454,-1.8744,2.0169,-0.3013,-0.3261
6518.0,-6.5522,-8.3454,-1.8744,2.2753,0.4494,-1.3078
6524.0,-6.5522,-8.3454,-1.8744,2.2753,0.4494,-1.3078
6529.0,-6.6815,-7.0965,-2.9975,2.2753,0.4494,-1.3078
6533.0,-6.6815,-7.0965,-2.9975,2.2753,0.4494,-1.3078
6539.0,-6.6815,-7.0965,-2.9975,2.2753,0.4494,-1.3078
6543.0,-6.6815,-7.0965,-2.9975,2.2753,0.4494,-1.3078
6548.0,-6.6815,-7.0965,-2.9975,1.516,0.7011,-0.507
6554.0,-7.17,-6.4148,-2.0118,1.516,0.7011,-0.507
6558.0,-7.17,-6.4148,-2.0118,1.516,0.7011,-0.507
6564.0,-7.17,-6.4148,-2.0118,1.516,0.7011,-0.507
6569.0,-7.17,-6.4148,-2.0118,1.516,0.7011,-0.507
6574.0,-7.17,-6.4148,-2.0118,1.516,0.7011,-0.507
6578.0,-7.17,-6.4148,-2.0118,1.4366,0.1214,-0.7153
6584.0,-6.4324,-7.0822,-3.2866,1.4366,0.1214,-0.7153
6589.0,-6.4324,-7.0822,-3.2866,1.4366,0.1214,-0.7153
6593.0,-6.4324,-7.0822,-3.2866,1.4366,0.1214,-0.7153
6598.0,-6.4324,-7.0822,-3.2866,1.4366,0.1214,-0.7153
6603.0,-6.4324,-7.0822,-3.2866,1.4366,0.1214,-0.7153
6609.0,-6.9257,-6.2575,-1.9881,1.4451,-0.1706,-0.6328
6613.0,-6.9257,-6.2575,-1.9881,1.4451,-0.1706,-0.6328
6619.0,-6.9257,-6.2575,-1.9881,1.4451,-0.1706,-0.6328
6623.0,-6.9257,-6.2575,-1.9881,1.4451,-0.1706,-0.6328
6628.0,-6.9257,-6.2575,-1.9881,1.4451,-0.1706,-0.6328
6634.0,-7.5914,-5.1516,-1.9265,1.4451,-0.1706,-0.6328
6639.0,-7.5914,-5.1516,-1.9265,1.4451,-0.1706,-0.6328
6644.0,-7.5914,-5.1516,-1.9265,1.3804,0.0848,-0.4819
6648.0,-7.5914,-5.1516,-1.9265,1.3804,0.0848,-0.4819
6654.0,-7.5914,-5.1516,-1.9265,1.3804,0.0848,-0.4819
6659.0,-8.4631,-5.2803,-2.3483,1.3804,0.0848,-0.4819
6664.0,-8.4631,-5.2803,-2.3483,1.3804,0.0848,-0.4819
6669.0,-8.4631,-5.2803,-2.3483,1.3804,0.0848,-0.4819
6674.0,-8.4631,-5.2803,-2.3483,1.4794,-0.3025,-0.3298
6679.0,-8.4631,-5.2803,-2.3483,1.4794,-0.3025,-0.3298
6683.0,-8.4631,-5.2803,-2.3483,1.4794,-0.3025,-0.3298
6688.0,-8.9516,-5.2612,-2.6468,1.4794,-0.3025,-0.3298
6693.0,-8.9516,-5.2612,-2.6468,1.4794,-0.3025,-0.3298
6698.0,-8.9516,-5.2612,-2.6468,1.4794,-0.3025,-0.3298
6703.0,-8.9516,-5.2612,-2.6468,1.3462,-0.6269,-0.1808
6708.0,-8.9516,-5.2612,-2.6468,1.3462,-0.6269,-0.1808
6713.0,-9.3156,-4.1553,-2.8364,1.3462,-0.6269,-0.1808
6719.0,-9.3156,-4.1553,-2.8364,1.3462,-0.6269,-0.1808
6723.0,-9.3156,-4.1553,-2.8364,1.3462,-0.6269,-0.1808
6728.0,-9.3156,-4.1553,-2.8364,1.3462,-0.6269,-0.1808
6733.0,-9.3156,-4.1553,-2.8364,1.2857,-0.1669,-0.364
6738.0,-9.4784,-3.2067,-2.6184,1.2857,-0.1669,-0.364
6744.0,-9.4784,-3.2067,-2.6184,1.2857,-0.1669,-0.364
6748.0,-9.4784,-3.2067,-2.6184,1.2857,-0.1669,-0.364
6753.0,-9.4784,-3.2067,-2.6184,1.2857,-0.1669,-0.364
6759.0,-9.4784,-3.2067,-2.6184,1.2857,-0.1669,-0.364
6764.0,-8.8462,-3.2306,-3.6799,1.2038,0.0066,-0.3762
6769.0,-8.8462,-3.2306,-3.6799,1.2038,0.0066,-0.3762
6774.0,-8.8462,-3.2306,-3.6799,1.2038,0.0066,-0.3762
6778.0,-8.8462,-3.2306,-3.6799,1.2038,0.0066,-0.3762
6784.0,-8.8462,-3.2306,-3.6799,1.2038,0.0066,-0.3762
6789.0,-8.8462,-3.2306,-3.6799,1.2038,0.0066,-0.3762
6794.0,-8.9229,-3.4785,-3.6847,1.0768,-0.4583,-0.3989
6798.0,-8.9229,-3.4785,-3.6847,1.0768,-0.4583,-0.3989
6803.0,-8.9229,-3.4785,-3.6847,1.0768,-0.4583,-0.3989
6808.0,-8.9229,-3.4785,-3.6847,1.0768,-0.4583,-0.3989
6813.0,-8.9229,-3.4785,-3.6847,1.0768,-0.4583,-0.3989
6819.0,-10.6853,-2.8826,-2.154,1.0768,-0.4583,-0.3989
6824.0,-10.6853,-2.8826,-2.154,1.0768,-0.4583,-0.3989
6829.0,-10.6853,-2.8826,-2.154,1.0114,-0.0716,-0.6896
6834.0,-10.6853,-2.8826,-2.154,1.0114,-0.0716,-0.6896
6839.0,-10.6853,-2.8826,-2.154,1.0114,-0.0716,-0.6896
6844.0,-10.6853,-2.8826,-2.154,1.0114,-0.0716,-0.6896
6849.0,-10.9247,-1.5288,-2.8269,1.0114,-0.0716,-0.6896
6854.0,-10.9247,-1.5288,-2.8269,1.0114,-0.0716,-0.6896
6859.0,-10.9247,-1.5288,-2.8269,0.8661,0.6211,-0.4349
6864.0,-10.9247,-1.5288,-2.8269,0.8661,0.6211,-0.4349
6868.0,-10.9247,-1.5288,-2.8269,0.8661,0.6211,-0.4349
6873.0,-9.2341,-1.729,-2.1871,0.8661,0.6211,-0.4349
6878.0,-9.2341,-1.729,-2.1871,0.8661,0.6211,-0.4349
6883.0,-9.2341,-1.729,-2.1871,0.8661,0.6211,-0.4349
6889.0,-9.2341,-1.729,-2.1871,0.6504,0.3933,-0.3591
6894.0,-9.2341,-1.729,-2.1871,0.6504,0.3933,-0.3591
6899.0,-10.6278,-1.5002,-2.0876,0.6504,0.3933,-0.3591
6904.0,-10.6278,-1.5002,-2.0876,0.6504,0.3933,-0.3591
6908.0,-10.6278,-1.5002,-2.0876,0.6504,0.3933,-0.3591
6913.0,-10.6278,-1.5002,-2.0876,0.6504,0.3933,-0.3591
6918.0,-10.6278,-1.5002,-2.0876,0.6235,-0.2878,-0.2797
6923.0,-10.6278,-1.5002,-2.0876,0.6235,-0.2878,-0.2797
6928.0,-11.3222,-0.5945,-2.3056,0.6235,-0.2878,-0.2797
6933.0,-11.3222,-0.5945,-2.3056,0.6235,-0.2878,-0.2797
6939.0,-11.3222,-0.5945,-2.3056,0.6235,-0.2878,-0.2797
6944.0,-11.3222,-0.5945,-2.3056,0.6235,-0.2878,-0.2797
6949.0,-11.3222,-0.5945,-2.3056,0.4488,-0.2243,-0.0843
6953.0,-11.3222,-0.5945,-2.3056,0.4488,-0.2243,-0.0843
6959.0,-10.9726,-0.6517,-2.2487,0.4488,-0.2243,-0.0843
6964.0,-10.9726,-0.6517,-2.2487,0.4488,-0.2243,-0.0843
6970.0,-10.9726,-0.6517,-2.2487,0.4488,-0.2243,-0.0843
6974.0,-10.9726,-0.6517,-2.2487,0.4488,-0.2243,-0.0843
6978.0,-10.9726,-0.6517,-2.2487,0.1147,0.0658,0.0574
6984.0,-11.2025,-1.3191,-3.1492,0.1147,0.0658,0.0574
6989.0,-11.2025,-1.3191,-3.1492,0.1147,0.0658,0.0574
6993.0,-11.2025,-1.3191,-3.1492,0.1147,0.0658,0.0574
6998.0,-11.2025,-1.3191,-3.1492,0.1147,0.0658,0.0574
7006.0,-11.2025,-1.3191,-3.1492,0.1147,0.0658,0.0574
7009.0,-11.2791,-1.8816,-2.8885,0.1147,0.0658,0.0574
7014.0,-11.2791,-1.8816,-2.8885,-0.0997,-0.0569,0.2028
7019.0,-11.2791,-1.8816,-2.8885,-0.0997,-0.0569,0.2028
7023.0,-11.2791,-1.8816,-2.8885,-0.0997,-0.0569,0.2028
7030.0,-11.2791,-1.8816,-2.8885,-0.0997,-0.0569,0.2028
7034.0,-11.2791,-1.8816,-2.8885,-0.0997,-0.0569,0.2028
7039.0,-11.3031,-2.4155,-3.1255,-0.0997,-0.0569,0.2028
7044.0,-11.3031,-2.4155,-3.1255,-0.3129,-0.2182,0.3323
7049.0,-11.3031,-2.4155,-3.1255,-0.3129,-0.2182,0.3323
7054.0,-11.3031,-2.4155,-3.1255,-0.3129,-0.2182,0.3323
7059.0,-11.3031,-2.4155,-3.1255,-0.3129,-0.2182,0.3323
7064.0,-11.2408,-2.9017,-2.7937,-0.3129,-0.2182,0.3323
7069.0,-11.2408,-2.9017,-2.7937,-0.3129,-0.2182,0.3323
7074.0,-11.2408,-2.9017,-2.7937,-0.5426,-0.1003,0.4093
7079.0,-11.2408,-2.9017,-2.7937,-0.5426,-0.1003,0.4093
7084.0,-11.2408,-2.9017,-2.7937,-0.5426,-0.1003,0.4093
7089.0,-11.2025,-3.2354,-3.0828,-0.5426,-0.1003,0.4093
7094.0,-11.2025,-3.2354,-3.0828,-0.5426,-0.1003,0.4093
7098.0,-11.2025,-3.2354,-3.0828,-0.5426,-0.1003,0.4093
7104.0,-11.2025,-3.2354,-3.0828,-0.7735,-0.0643,0.5223
7108.0,-11.2025,-3.2354,-3.0828,-0.7735,-0.0643,0.5223
7114.0,-11.4228,-3.5213,-2.8838,-0.7735,-0.0643,0.5223
7118.0,-11.4228,-3.5213,-2.8838,-0.7735,-0.0643,0.5223
7123.0,-11.4228,-3.5213,-2.8838,-0.7735,-0.0643,0.5223
7129.0,-11.4228,-3.5213,-2.8838,-0.7735,-0.0643,0.5223
7133.0,-11.4228,-3.5213,-2.8838,-0.9598,0.0652,0.6256
7138.0,-11.4228,-3.5213,-2.8838,-0.9598,0.0652,0.6256
7144.0,-11.2217,-4.0362,-2.8174,-0.9598,0.0652,0.6256
7148.0,-11.2217,-4.0362,-2.8174,-0.9598,0.0652,0.6256
7154.0,-11.2217,-4.0362,-2.8174,-0.9598,0.0652,0.6256
7158.0,-11.2217,-4.0362,-2.8174,-0.9598,0.0652,0.6256
7163.0,-11.2217,-4.0362,-2.8174,-1.2066,0.2198,0.7178
7168.0,-10.3788,-4.0314,-3.1397,-1.2066,0.2198,0.7178
7173.0,-10.3788,-4.0314,-3.1397,-1.2066,0.2198,0.7178
7179.0,-10.3788,-4.0314,-3.1397,-1.2066,0.2198,0.7178
7184.0,-10.3788,-4.0314,-3.1397,-1.2066,0.2198,0.7178
7189.0,-10.3788,-4.0314,-3.1397,-1.2066,0.2198,0.7178
7200.0,-10.3788,-4.0314,-3.1397,-1.2066,0.2198,0.7178
7201.0,-10.3788,-4.0314,-3.1397,-1.2066,0.2198,0.7178
7203.0,-10.3788,-4.0314,-3.1397,-1.2066,0.2198,0.7178
7208.0,-10.3788,-4.0314,-3.1397,-1.2066,0.2198,0.7178
7214.0,-9.8663,-4.0457,-3.225,-1.3141,0.2784,0.7019
7218.0,-9.8663,-4.0457,-3.225,-1.3141,0.2784,0.7019
7224.0,-9.8663,-4.0457,-3.225,-1.3141,0.2784,0.7019
7229.0,-9.8663,-4.0457,-3.225,-1.3141,0.2784,0.7019
7233.0,-9.8663,-4.0457,-3.225,-1.3141,0.2784,0.7019
7239.0,-9.8663,-4.0457,-3.225,-1.3141,0.2784,0.7019
7244.0,-8.4774,-5.0753,-3.1397,-1.5683,0.3279,0.6384
7248.0,-8.4774,-5.0753,-3.1397,-1.5683,0.3279,0.6384
7254.0,-8.4774,-5.0753,-3.1397,-1.5683,0.3279,0.6384
7258.0,-8.4774,-5.0753,-3.1397,-1.5683,0.3279,0.6384
7264.0,-8.4774,-5.0753,-3.1397,-1.5683,0.3279,0.6384
7268.0,-8.2619,-5.1516,-3.2724,-1.5683,0.3279,0.6384
7274.0,-8.2619,-5.1516,-3.2724,-1.647,0.2424,0.6152
7278.0,-8.2619,-5.1516,-3.2724,-1.647,0.2424,0.6152
7283.0,-8.2619,-5.1516,-3.2724,-1.647,0.2424,0.6152
7288.0,-8.2619,-5.1516,-3.2724,-1.647,0.2424,0.6152
7293.0,-7.601,-5.3423,-2.5094,-1.647,0.2424,0.6152
7299.0,-7.601,-5.3423,-2.5094,-1.647,0.2424,0.6152
7304.0,-7.601,-5.3423,-2.5094,-1.7344,0.0988,0.6506
7309.0,-7.601,-5.3423,-2.5094,-1.7344,0.0988,0.6506
7314.0,-7.601,-5.3423,-2.5094,-1.7344,0.0988,0.6506
7318.0,-7.601,-5.3423,-2.5094,-1.7344,0.0988,0.6506
7324.0,-7.3807,-5.8952,-2.7653,-1.7344,0.0988,0.6506
7328.0,-7.3807,-5.8952,-2.7653,-1.7344,0.0988,0.6506
7334.0,-7.3807,-5.8952,-2.7653,-1.826,-0.0734,0.6433
7339.0,-7.3807,-5.8952,-2.7653,-1.826,-0.0734,0.6433
7344.0,-7.3807,-5.8952,-2.7653,-1.826,-0.0734,0.6433
7349.0,-6.873,-6.2289,-2.6705,-1.826,-0.0734,0.6433
7354.0,-6.873,-6.2289,-2.6705,-1.826,-0.0734,0.6433
7359.0,-6.873,-6.2289,-2.6705,-1.826,-0.0734,0.6433
7364.0,-6.873,-6.2289,-2.6705,-1.8884,-0.308,0.595
7369.0,-6.873,-6.2289,-2.6705,-1.8884,-0.308,0.595
7374.0,-6.873,-6.2289,-2.6705,-1.8884,-0.308,0.595
7379.0,-6.0541,-6.3576,-2.0544,-1.8884,-0.308,0.595
7384.0,-6.0541,-6.3576,-2.0544,-1.8884,-0.308,0.595
7389.0,-6.0541,-6.3576,-2.0544,-1.8884,-0.308,0.595
7394.0,-6.0541,-6.3576,-2.0544,-1.8884,-0.308,0.595
7399.0,-6.0541,-6.3576,-2.0544,-1.8926,-0.5194,0.5865
7403.0,-5.738,-6.3719,-1.9549,-1.8926,-0.5194,0.5865
7409.0,-5.738,-6.3719,-1.9549,-1.8926,-0.5194,0.5865
7414.0,-5.738,-6.3719,-1.9549,-1.8926,-0.5194,0.5865
7419.0,-5.738,-6.3719,-1.9549,-1.8926,-0.5194,0.5865
7423.0,-5.738,-6.3719,-1.9549,-1.8926,-0.5194,0.5865
7428.0,-5.0819,-6.696,-1.5237,-1.925,-0.6018,0.4973
7433.0,-5.0819,-6.696,-1.5237,-1.925,-0.6018,0.4973
7439.0,-5.0819,-6.696,-1.5237,-1.925,-0.6018,0.4973
7444.0,-5.0819,-6.696,-1.5237,-1.925,-0.6018,0.4973
7449.0,-5.0819,-6.696,-1.5237,-1.925,-0.6018,0.4973
7454.0,-5.0819,-6.696,-1.5237,-1.925,-0.6018,0.4973
7458.0,-4.9717,-7.4349,-1.6042,-1.9775,-0.6837,0.5101
7463.0,-4.9717,-7.4349,-1.6042,-1.9775,-0.6837,0.5101
7468.0,-4.9717,-7.4349,-1.6042,-1.9775,-0.6837,0.5101
7473.0,-4.9717,-7.4349,-1.6042,-1.9775,-0.6837,0.5101
7478.0,-4.9717,-7.4349,-1.6042,-1.9775,-0.6837,0.5101
7484.0,-4.9813,-7.0297,-1.4052,-1.9775,-0.6837,0.5101
7489.0,-4.9813,-7.0297,-1.4052,-1.9384,-0.4112,0.4466
7494.0,-4.9813,-7.0297,-1.4052,-1.9384,-0.4112,0.4466
7499.0,-4.9813,-7.0297,-1.4052,-1.9384,-0.4112,0.4466
7503.0,-4.9813,-7.0297,-1.4052,-1.9384,-0.4112,0.4466
7509.0,-4.9813,-7.0297,-1.4052,-1.9384,-0.4112,0.4466
7514.0,-4.3204,-6.1812,-1.5,-1.9384,-0.4112,0.4466
7519.0,-4.3204,-6.1812,-1.5,-1.9384,-0.4112,0.4466
7524.0,-4.3204,-6.1812,-1.5,-1.9696,-0.17,0.2389
7529.0,-4.3204,-6.1812,-1.5,-1.9696,-0.17,0.2389
7534.0,-4.3204,-6.1812,-1.5,-1.9696,-0.17,0.2389
7539.0,-3.8415,-5.8619,-1.8601,-1.9696,-0.17,0.2389
7544.0,-3.8415,-5.8619,-1.8601,-1.9696,-0.17,0.2389
7548.0,-3.8415,-5.8619,-1.8601,-1.9696,-0.17,0.2389
7553.0,-3.8415,-5.8619,-1.8601,-1.9256,-0.1822,0.1607
7558.0,-3.8415,-5.8619,-1.8601,-1.9256,-0.1822,0.1607
7564.0,-3.8415,-5.8619,-1.8601,-1.9256,-0.1822,0.1607
7569.0,-4.5359,-5.9476,-0.4716,-1.9256,-0.1822,0.1607
7574.0,-4.5359,-5.9476,-0.4716,-1.9256,-0.1822,0.1607
7578.0,-4.5359,-5.9476,-0.4716,-1.9256,-0.1822,0.1607
7584.0,-4.5359,-5.9476,-0.4716,-1.6587,-0.2286,0.3244
7589.0,-4.5359,-5.9476,-0.4716,-1.6587,-0.2286,0.3244
7594.0,-4.2821,-6.0049,-0.41,-1.6587,-0.2286,0.3244
7599.0,-4.2821,-6.0049,-0.41,-1.6587,-0.2286,0.3244
7604.0,-4.2821,-6.0049,-0.41,-1.6587,-0.2286,0.3244
7608.0,-4.2821,-6.0049,-0.41,-1.6587,-0.2286,0.3244
7613.0,-4.2821,-6.0049,-0.41,-1.283,-0.3331,0.3195
7618.0,-5.0436,-6.839,-0.8223,-1.283,-0.3331,0.3195
7624.0,-5.0436,-6.839,-0.8223,-1.283,-0.3331,0.3195
7628.0,-5.0436,-6.839,-0.8223,-1.283,-0.3331,0.3195
7634.0,-5.0436,-6.839,-0.8223,-1.283,-0.3331,0.3195
7639.0,-5.0436,-6.839,-0.8223,-1.283,-0.3331,0.3195
7643.0,-5.671,-7.33,0.4904,-0.8541,-0.2249,0.405
7649.0,-5.671,-7.33,0.4904,-0.8541,-0.2249,0.405
7653.0,-5.671,-7.33,0.4904,-0.8541,-0.2249,0.405
7659.0,-5.671,-7.33,0.4904,-0.8541,-0.2249,0.405
7663.0,-5.671,-7.33,0.4904,-0.8541,-0.2249,0.405
7669.0,-5.671,-7.33,0.4904,-0.8541,-0.2249,0.405
7673.0,-6.8779,-7.6589,-1.0877,-0.8541,-0.2249,0.405
7679.0,-6.8779,-7.6589,-1.0877,-0.363,0.0811,0.2816
7684.0,-6.8779,-7.6589,-1.0877,-0.363,0.0811,0.2816
7688.0,-6.8779,-7.6589,-1.0877,-0.363,0.0811,0.2816
7694.0,-6.8779,-7.6589,-1.0877,-0.363,0.0811,0.2816
7699.0,-7.3041,-7.8115,-1.5142,-0.363,0.0811,0.2816
7703.0,-7.3041,-7.8115,-1.5142,-0.363,0.0811,0.2816
7709.0,-7.3041,-7.8115,-1.5142,0.1391,0.345,0.1234
7714.0,-7.3041,-7.8115,-1.5142,0.1391,0.345,0.1234
7719.0,-7.3041,-7.8115,-1.5142,0.1391,0.345,0.1234
7724.0,-7.3041,-7.8115,-1.5142,0.1391,0.345,0.1234
7729.0,-6.2074,-8.1785,-3.0117,0.1391,0.345,0.1234
7734.0,-6.2074,-8.1785,-3.0117,0.1391,0.345,0.1234
7739.0,-6.2074,-8.1785,-3.0117,0.3572,0.3554,-0.1594
7744.0,-6.2074,-8.1785,-3.0117,0.3572,0.3554,-0.1594
7749.0,-6.2074,-8.1785,-3.0117,0.3572,0.3554,-0.1594
7754.0,-5.7189,-8.5885,-2.4288,0.3572,0.3554,-0.1594
7759.0,-5.7189,-8.5885,-2.4288,0.3572,0.3554,-0.1594
7764.0,-5.7189,-8.5885,-2.4288,0.3572,0.3554,-0.1594
7768.0,-5.7189,-8.5885,-2.4288,0.8227,-0.0136,-0.2571
7774.0,-5.7189,-8.5885,-2.4288,0.8227,-0.0136,-0.2571
7779.0,-4.7897,-8.3072,-2.1255,0.8227,-0.0136,-0.2571
7784.0,-4.7897,-8.3072,-2.1255,0.8227,-0.0136,-0.2571
7789.0,-4.7897,-8.3072,-2.1255,0.8227,-0.0136,-0.2571
7794.0,-4.7897,-8.3072,-2.1255,0.8227,-0.0136,-0.2571
7799.0,-4.7897,-8.3072,-2.1255,0.8227,-0.0136,-0.2571
7804.0,-4.7897,-8.3072,-2.1255,1.1086,-0.7289,-0.2468
7808.0,-4.7083,-6.8248,-2.3341,1.1086,-0.7289,-0.2468
7814.0,-4.7083,-6.8248,-2.3341,1.1086,-0.7289,-0.2468
7819.0,-4.7083,-6.8248,-2.3341,1.1086,-0.7289,-0.2468
7823.0,-4.7083,-6.8248,-2.3341,1.1086,-0.7289,-0.2468
7829.0,-4.7083,-6.8248,-2.3341,1.4109,-0.4742,-0.1289
7834.0,-5.0867,-6.124,-1.3815,1.4109,-0.4742,-0.1289
7839.0,-5.0867,-6.124,-1.3815,1.4109,-0.4742,-0.1289
7844.0,-5.0867,-6.124,-1.3815,1.4109,-0.4742,-0.1289
7849.0,-5.0867,-6.124,-1.3815,1.4109,-0.4742,-0.1289
7854.0,-5.0867,-6.124,-1.3815,1.4109,-0.4742,-0.1289
7859.0,-5.0867,-6.124,-1.3815,1.4109,-0.4742,-0.1289
7863.0,-3.5877,-5.0944,0.6421,1.4183,-0.3263,-0.3867
7868.0,-3.5877,-5.0944,0.6421,1.4183,-0.3263,-0.3867
7875.0,-3.5877,-5.0944,0.6421,1.4183,-0.3263,-0.3867
7878.0,-3.5877,-5.0944,0.6421,1.4183,-0.3263,-0.3867
7884.0,-3.5877,-5.0944,0.6421,1.4183,-0.3263,-0.3867
7888.0,-5.7045,-4.7655,-2.4952,1.4183,-0.3263,-0.3867
7894.0,-5.7045,-4.7655,-2.4952,1.9119,-0.2964,-0.3781
7898.0,-5.7045,-4.7655,-2.4952,1.9119,-0.2964,-0.3781
7904.0,-5.7045,-4.7655,-2.4952,1.9119,-0.2964,-0.3781
7909.0,-5.7045,-4.7655,-2.4952,1.9119,-0.2964,-0.3781
7914.0,-5.7045,-4.7655,-2.4952,1.9119,-0.2964,-0.3781
7919.0,-5.0388,-5.0372,0.1113,1.9119,-0.2964,-0.3781
7925.0,-5.0388,-5.0372,0.1113,2.0902,0.6572,-0.3207
7928.0,-5.0388,-5.0372,0.1113,2.0902,0.6572,-0.3207
7933.0,-5.0388,-5.0372,0.1113,2.0902,0.6572,-0.3207
7939.0,-5.0388,-5.0372,0.1113,2.0902,0.6572,-0.3207
7943.0,-7.6729,-5.9476,-1.0972,2.0902,0.6572,-0.3207
7948.0,-7.6729,-5.9476,-1.0972,2.0902,0.6572,-0.3207
7953.0,-7.6729,-5.9476,-1.0972,2.0902,0.6572,-0.3207
7958.0,-7.6729,-5.9476,-1.0972,2.2527,0.8044,-0.7788
7964.0,-7.6729,-5.9476,-1.0972,2.2527,0.8044,-0.7788
7968.0,-6.2361,-6.3814,-1.6516,2.2527,0.8044,-0.7788
7974.0,-6.2361,-6.3814,-1.6516,2.2527,0.8044,-0.7788
7979.0,-6.2361,-6.3814,-1.6516,2.2527,0.8044,-0.7788
7984.0,-6.2361,-6.3814,-1.6516,2.2527,0.8044,-0.7788
7988.0,-6.2361,-6.3814,-1.6516,1.8001,1.1624,-0.8937
7994.0,-6.2361,-6.3814,-1.6516,1.8001,1.1624,-0.8937
7999.0,-4.5215,-5.9667,0.1919,1.8001,1.1624,-0.8937
8003.0,-4.5215,-5.9667,0.1919,1.8001,1.1624,-0.8937
8009.0,-4.5215,-5.9667,0.1919,1.8001,1.1624,-0.8937
8014.0,-4.5215,-5.9667,0.1919,1.8001,1.1624,-0.8937
8018.0,-4.5215,-5.9667,0.1919,1.7879,0.3157,-0.5742
8024.0,-5.3645,-6.5816,-0.0451,1.7879,0.3157,-0.5742
8029.0,-5.3645,-6.5816,-0.0451,1.7879,0.3157,-0.5742
8033.0,-5.3645,-6.5816,-0.0451,1.7879,0.3157,-0.5742
8039.0,-5.3645,-6.5816,-0.0451,1.7879,0.3157,-0.5742
8044.0,-5.3645,-6.5816,-0.0451,1.7879,0.3157,-0.5742
8049.0,-6.6097,-6.2003,-3.7605,1.9919,-0.7375,-0.8295
8054.0,-6.6097,-6.2003,-3.7605,1.9919,-0.7375,-0.8295
8058.0,-6.6097,-6.2003,-3.7605,1.9919,-0.7375,-0.8295
8064.0,-6.6097,-6.2003,-3.7605,1.9919,-0.7375,-0.8295
8069.0,-6.6097,-6.2003,-3.7605,1.9919,-0.7375,-0.8295
8074.0,-6.6097,-6.2003,-3.7605,1.9919,-0.7375,-0.8295
8079.0,-8.8366,-5.6473,-2.5994,1.6944,0.163,-0.587
8083.0,-8.8366,-5.6473,-2.5994,1.6944,0.163,-0.587
8089.0,-8.8366,-5.6473,-2.5994,1.6944,0.163,-0.587
8094.0,-8.8366,-5.6473,-2.5994,1.6944,0.163,-0.587
8099.0,-8.8366,-5.6473,-2.5994,1.6944,0.163,-0.587
8103.0,-7.4909,-6.0096,-4.3529,1.6944,0.163,-0.587
8108.0,-7.4909,-6.0096,-4.3529,1.6944,0.163,-0.587
8114.0,-7.4909,-6.0096,-4.3529,1.483,-0.0069,-0.5809
8119.0,-7.4909,-6.0096,-4.3529,1.483,-0.0069,-0.5809
8123.0,-7.4909,-6.0096,-4.3529,1.483,-0.0069,-0.5809
8128.0,-7.4909,-6.0096,-4.3529,1.483,-0.0069,-0.5809
8134.0,-6.8252,-7.7209,-3.2297,1.483,-0.0069,-0.5809
8138.0,-6.8252,-7.7209,-3.2297,1.483,-0.0069,-0.5809
8144.0,-6.8252,-7.7209,-3.2297,1.4873,-0.1651,-0.6762
8148.0,-6.8252,-7.7209,-3.2297,1.4873,-0.1651,-0.6762
8154.0,-6.8252,-7.7209,-3.2297,1.4873,-0.1651,-0.6762
8158.0,-7.6968,-6.7294,-1.9786,1.4873,-0.1651,-0.6762
8163.0,-7.6968,-6.7294,-1.9786,1.4873,-0.1651,-0.6762
8169.0,-7.6968,-6.7294,-1.9786,1.4873,-0.1651,-0.6762
8174.0,-7.6968,-6.7294,-1.9786,1.4873,-0.1651,-0.6762
8178.0,-7.6968,-6.7294,-1.9786,1.4354,0.0475,-0.5131
8183.0,-9.3922,-4.8036,-1.8696,1.4354,0.0475,-0.5131
8191.0,-9.3922,-4.8036,-1.8696,1.4354,0.0475,-0.5131
8193.0,-9.3922,-4.8036,-1.8696,1.4354,0.0475,-0.5131
8199.0,-9.3922,-4.8036,-1.8696,1.4354,0.0475,-0.5131
8204.0,-9.3922,-4.8036,-1.8696,1.4354,0.0475,-0.5131
8208.0,-9.3922,-4.8036,-1.8696,1.2998,-0.3465,-0.6445
8214.0,-9.6173,-4.2173,-2.3151,1.2998,-0.3465,-0.6445
8219.0,-9.6173,-4.2173,-2.3151,1.2998,-0.3465,-0.6445
8224.0,-9.6173,-4.2173,-2.3151,1.2998,-0.3465,-0.6445
8228.0,-9.6173,-4.2173,-2.3151,1.2998,-0.3465,-0.6445
8234.0,-9.6173,-4.2173,-2.3151,1.2998,-0.3465,-0.6445
8239.0,-9.306,-5.7427,-2.2819,1.3297,-0.3972,-0.3653
8244.0,-9.306,-5.7427,-2.2819,1.3297,-0.3972,-0.3653
8248.0,-9.306,-5.7427,-2.2819,1.3297,-0.3972,-0.3653
8253.0,-9.306,-5.7427,-2.2819,1.3297,-0.3972,-0.3653
8259.0,-9.306,-5.7427,-2.2819,1.3297,-0.3972,-0.3653
8264.0,-10.2064,-4.3126,-2.571,1.3297,-0.3972,-0.3653
8269.0,-10.2064,-4.3126,-2.571,1.1562,-0.1614,-0.3298
8274.0,-10.2064,-4.3126,-2.571,1.1562,-0.1614,-0.3298
8279.0,-10.2064,-4.3126,-2.571,1.1562,-0.1614,-0.3298
8284.0,-10.2064,-4.3126,-2.571,1.1562,-0.1614,-0.3298
8289.0,-11.3318,-2.5013,-2.5189,1.1562,-0.1614,-0.3298
8294.0,-11.3318,-2.5013,-2.5189,1.1562,-0.1614,-0.3298
8300.0,-11.3318,-2.5013,-2.5189,1.1562,-0.1614,-0.3298
8304.0,-11.3318,-2.5013,-2.5189,1.0426,-0.4558,-0.4233
8309.0,-11.3318,-2.5013,-2.5189,1.0426,-0.4558,-0.4233
8314.0,-11.3318,-2.5013,-2.5189,1.0426,-0.4558,-0.4233
8319.0,-10.1776,-2.5918,-2.1729,1.0426,-0.4558,-0.4233
8324.0,-10.1776,-2.5918,-2.1729,1.0426,-0.4558,-0.4233
8329.0,-10.1776,-2.5918,-2.1729,1.0426,-0.4558,-0.4233
8333.0,-10.1776,-2.5918,-2.1729,0.7048,0.2552,-0.4245
8338.0,-10.1776,-2.5918,-2.1729,0.7048,0.2552,-0.4245
8343.0,-10.4315,-2.3725,-2.6089,0.7048,0.2552,-0.4245
8348.0,-10.4315,-2.3725,-2.6089,0.7048,0.2552,-0.4245
8353.0,-10.4315,-2.3725,-2.6089,0.7048,0.2552,-0.4245
8358.0,-10.4315,-2.3725,-2.6089,0.7048,0.2552,-0.4245
8364.0,-10.4315,-2.3725,-2.6089,0.6284,0.0292,-0.4288
8368.0,-11.8778,-1.791,-2.8411,0.6284,0.0292,-0.4288
8373.0,-11.8778,-1.791,-2.8411,0.6284,0.0292,-0.4288
8378.0,-11.8778,-1.791,-2.8411,0.6284,0.0292,-0.4288
8383.0,-11.8778,-1.791,-2.8411,0.6284,0.0292,-0.4288
8389.0,-11.8778,-1.791,-2.8411,0.6284,0.0292,-0.4288
8394.0,-11.8778,-1.791,-2.8411,0.6284,0.0292,-0.4288
8399.0,-11.9209,-1.5288,-1.0877,0.3664,0.2009,-0.2962
8404.0,-11.9209,-1.5288,-1.0877,0.3664,0.2009,-0.2962
8409.0,-11.9209,-1.5288,-1.0877,0.3664,0.2009,-0.2962
8414.0,-11.9209,-1.5288,-1.0877,0.3664,0.2009,-0.2962
8418.0,-11.9209,-1.5288,-1.0877,0.3664,0.2009,-0.2962
8424.0,-11.0349,-1.0378,-1.8696,0.3664,0.2009,-0.2962
8428.0,-11.0349,-1.0378,-1.8696,0.0304,0.3633,-0.0262
8434.0,-11.0349,-1.0378,-1.8696,0.0304,0.3633,-0.0262
8438.0,-11.0349,-1.0378,-1.8696,0.0304,0.3633,-0.0262
8444.0,-11.0349,-1.0378,-1.8696,0.0304,0.3633,-0.0262
8448.0,-11.0349,-1.0378,-1.8696,0.0304,0.3633,-0.0262
8454.0,-11.2744,-1.4859,-2.1113,0.0304,0.3633,-0.0262
8459.0,-11.2744,-1.4859,-2.1113,-0.1138,-0.129,0.0764
8464.0,-11.2744,-1.4859,-2.1113,-0.1138,-0.129,0.0764
8468.0,-11.2744,-1.4859,-2.1113,-0.1138,-0.129,0.0764
8473.0,-11.2744,-1.4859,-2.1113,-0.1138,-0.129,0.0764
8480.0,-11.7245,-2.1676,-2.0923,-0.1138,-0.129,0.0764
8484.0,-11.7245,-2.1676,-2.0923,-0.1138,-0.129,0.0764
8490.0,-11.7245,-2.1676,-2.0923,-0.3606,-0.2377,0.289
8494.0,-11.7245,-2.1676,-2.0923,-0.3606,-0.2377,0.289
8499.0,-11.7245,-2.1676,-2.0923,-0.3606,-0.2377,0.289
8504.0,-11.7245,-2.1676,-2.0923,-0.3606,-0.2377,0.289
8509.0,-11.5569,-2.4536,-2.4857,-0.3606,-0.2377,0.289
8514.0,-11.5569,-2.4536,-2.4857,-0.3606,-0.2377,0.289
8519.0,-11.5569,-2.4536,-2.4857,-0.5121,5.0E-4,0.361
8524.0,-11.5569,-2.4536,-2.4857,-0.5121,5.0E-4,0.361
8528.0,-11.5569,-2.4536,-2.4857,-0.5121,5.0E-4,0.361
8533.0,-10.6757,-2.2629,-2.9928,-0.5121,5.0E-4,0.361
8538.0,-10.6757,-2.2629,-2.9928,-0.5121,5.0E-4,0.361
8543.0,-10.6757,-2.2629,-2.9928,-0.5121,5.0E-4,0.361
8549.0,-10.6757,-2.2629,-2.9928,-0.7625,0.0628,0.4356
8553.0,-10.6757,-2.2629,-2.9928,-0.7625,0.0628,0.4356
8559.0,-10.6757,-2.2629,-2.9928,-0.7625,0.0628,0.4356
8563.0,-11.2265,-2.6347,-3.1918,-0.7625,0.0628,0.4356
8568.0,-11.2265,-2.6347,-3.1918,-0.7625,0.0628,0.4356
8573.0,-11.2265,-2.6347,-3.1918,-0.7625,0.0628,0.4356
8579.0,-11.2265,-2.6347,-3.1918,-0.9323,-0.0215,0.4704
8584.0,-11.2265,-2.6347,-3.1918,-0.9323,-0.0215,0.4704
8589.0,-10.9152,-3.712,-3.2013,-0.9323,-0.0215,0.4704
8594.0,-10.9152,-3.712,-3.2013,-0.9323,-0.0215,0.4704
8599.0,-10.9152,-3.712,-3.2013,-0.9323,-0.0215,0.4704
8604.0,-10.9152,-3.712,-3.2013,-0.9323,-0.0215,0.4704
8609.0,-10.9152,-3.712,-3.2013,-1.1058,0.2821,0.5211
8614.0,-10.0292,-4.203,-2.9596,-1.1058,0.2821,0.5211
8618.0,-10.0292,-4.203,-2.9596,-1.1058,0.2821,0.5211
8623.0,-10.0292,-4.203,-2.9596,-1.1058,0.2821,0.5211
8628.0,-10.0292,-4.203,-2.9596,-1.1058,0.2821,0.5211
8634.0,-10.0292,-4.203,-2.9596,-1.1058,0.2821,0.5211
8638.0,-10.0292,-4.203,-2.9596,-1.2787,0.3829,0.5083
8644.0,-9.2581,-4.0743,-3.3624,-1.2787,0.3829,0.5083
8648.0,-9.2581,-4.0743,-3.3624,-1.2787,0.3829,0.5083
8654.0,-9.2581,-4.0743,-3.3624,-1.2787,0.3829,0.5083
8659.0,-9.2581,-4.0743,-3.3624,-1.2787,0.3829,0.5083
8664.0,-9.2581,-4.0743,-3.3624,-1.2787,0.3829,0.5083
8668.0,-9.0857,-4.5081,-3.3861,-1.3954,0.0933,0.4679
8673.0,-9.0857,-4.5081,-3.3861,-1.3954,0.0933,0.4679
8679.0,-9.0857,-4.5081,-3.3861,-1.3954,0.0933,0.4679
8684.0,-9.0857,-4.5081,-3.3861,-1.3954,0.0933,0.4679
8689.0,-9.0857,-4.5081,-3.3861,-1.3954,0.0933,0.4679
8694.0,-9.0857,-4.5081,-3.3861,-1.3954,0.0933,0.4679
8698.0,-9.282,-5.0849,-3.0307,-1.3954,0.0933,0.4679
8703.0,-9.282,-5.0849,-3.0307,-1.553,0.1221,0.4698
8708.0,-9.282,-5.0849,-3.0307,-1.553,0.1221,0.4698
8714.0,-9.282,-5.0849,-3.0307,-1.553,0.1221,0.4698
8719.0,-9.282,-5.0849,-3.0307,-1.553,0.1221,0.4698
8723.0,-8.4535,-5.2326,-2.8174,-1.553,0.1221,0.4698
8728.0,-8.4535,-5.2326,-2.8174,-1.553,0.1221,0.4698
8733.0,-8.4535,-5.2326,-2.8174,-1.7063,0.3658,0.4893
8739.0,-8.4535,-5.2326,-2.8174,-1.7063,0.3658,0.4893
8744.0,-8.4535,-5.2326,-2.8174,-1.7063,0.3658,0.4893
8749.0,-7.625,-5.3899,-2.7369,-1.7063,0.3658,0.4893
8754.0,-7.625,-5.3899,-2.7369,-1.7063,0.3658,0.4893
8758.0,-7.625,-5.3899,-2.7369,-1.7063,0.3658,0.4893
8763.0,-7.625,-5.3899,-2.7369,-1.7368,0.2717,0.4466
8769.0,-7.625,-5.3899,-2.7369,-1.7368,0.2717,0.4466
8774.0,-7.625,-5.3899,-2.7369,-1.7368,0.2717,0.4466
8779.0,-6.624,-5.7045,-2.5331,-1.7368,0.2717,0.4466
8785.0,-6.624,-5.7045,-2.5331,-1.7368,0.2717,0.4466
8788.0,-6.624,-5.7045,-2.5331,-1.7368,0.2717,0.4466
8794.0,-6.624,-5.7045,-2.5331,-1.8529,-0.1235,0.4985
8799.0,-6.624,-5.7045,-2.5331,-1.8529,-0.1235,0.4985
8804.0,-6.4899,-6.3052,-2.0781,-1.8529,-0.1235,0.4985
8809.0,-6.4899,-6.3052,-2.0781,-1.8529,-0.1235,0.4985
8814.0,-6.4899,-6.3052,-2.0781,-1.8529,-0.1235,0.4985
8819.0,-6.4899,-6.3052,-2.0781,-1.8529,-0.1235,0.4985
8824.0,-6.4899,-6.3052,-2.0781,-1.8957,-0.5627,0.5254
8829.0,-6.4899,-6.3052,-2.0781,-1.8957,-0.5627,0.5254
8834.0,-6.6336,-6.9344,-1.8364,-1.8957,-0.5627,0.5254
8838.0,-6.6336,-6.9344,-1.8364,-1.8957,-0.5627,0.5254
8843.0,-6.6336,-6.9344,-1.8364,-1.8957,-0.5627,0.5254
8849.0,-6.6336,-6.9344,-1.8364,-1.8957,-0.5627,0.5254
8854.0,-6.6336,-6.9344,-1.8364,-1.8957,-0.5627,0.5254
8858.0,-5.9775,-6.6674,-1.6374,-1.8981,-0.5139,0.4692
8864.0,-5.9775,-6.6674,-1.6374,-1.8981,-0.5139,0.4692
8869.0,-5.9775,-6.6674,-1.6374,-1.8981,-0.5139,0.4692
8873.0,-5.9775,-6.6674,-1.6374,-1.8981,-0.5139,0.4692
8878.0,-5.9775,-6.6674,-1.6374,-1.8981,-0.5139,0.4692
8884.0,-5.9775,-6.6674,-1.6374,-1.8981,-0.5139,0.4692
8888.0,-5.1202,-6.4863,-1.372,-2.0319,-0.3666,0.4771
8893.0,-5.1202,-6.4863,-1.372,-2.0319,-0.3666,0.4771
8899.0,-5.1202,-6.4863,-1.372,-2.0319,-0.3666,0.4771
8904.0,-5.1202,-6.4863,-1.372,-2.0319,-0.3666,0.4771
8909.0,-5.1202,-6.4863,-1.372,-2.0319,-0.3666,0.4771
8914.0,-4.9526,-6.7056,-1.4763,-2.0319,-0.3666,0.4771
8918.0,-4.9526,-6.7056,-1.4763,-2.0319,-0.3666,0.4771
8924.0,-4.9526,-6.7056,-1.4763,-1.9824,-0.5084,0.5162
8928.0,-4.9526,-6.7056,-1.4763,-1.9824,-0.5084,0.5162
8934.0,-4.9526,-6.7056,-1.4763,-1.9824,-0.5084,0.5162
8939.0,-4.8903,-6.4005,-0.9313,-1.9824,-0.5084,0.5162
8944.0,-4.8903,-6.4005,-0.9313,-1.9824,-0.5084,0.5162
8949.0,-4.8903,-6.4005,-0.9313,-1.8584,-0.4552,0.4722
8954.0,-4.8903,-6.4005,-0.9313,-1.8584,-0.4552,0.4722
8959.0,-4.8903,-6.4005,-0.9313,-1.8584,-0.4552,0.4722
8964.0,-4.8903,-6.4005,-0.9313,-1.8584,-0.4552,0.4722
8969.0,-4.6844,-5.8046,-1.0782,-1.8584,-0.4552,0.4722
8974.0,-4.6844,-5.8046,-1.0782,-1.8584,-0.4552,0.4722
8978.0,-4.6844,-5.8046,-1.0782,-1.8584,-0.4552,0.4722
8984.0,-4.6844,-5.8046,-1.0782,-1.8706,-0.2512,0.3299
8989.0,-4.6844,-5.8046,-1.0782,-1.8706,-0.2512,0.3299
8994.0,-4.8951,-5.5663,-0.9502,-1.8706,-0.2512,0.3299
8999.0,-4.8951,-5.5663,-0.9502,-1.8706,-0.2512,0.3299
9009.0,-4.8951,-5.5663,-0.9502,-1.8706,-0.2512,0.3299
9009.0,-4.8951,-5.5663,-0.9502,-1.8706,-0.2512,0.3299
9014.0,-4.8951,-5.5663,-0.9502,-1.7039,0.0439,0.281
9018.0,-4.8951,-5.5663,-0.9502,-1.7039,0.0439,0.281
9023.0,-5.3692,-5.7951,-1.173,-1.7039,0.0439,0.281
9028.0,-5.3692,-5.7951,-1.173,-1.7039,0.0439,0.281
9034.0,-5.3692,-5.7951,-1.173,-1.7039,0.0439,0.281
9039.0,-5.3692,-5.7951,-1.173,-1.7039,0.0439,0.281
9043.0,-5.3692,-5.7951,-1.173,-1.3544,0.0023,0.3647
9049.0,-5.01,-6.0859,-0.4384,-1.3544,0.0023,0.3647
9054.0,-5.01,-6.0859,-0.4384,-1.3544,0.0023,0.3647
9058.0,-5.01,-6.0859,-0.4384,-1.3544,0.0023,0.3647
9064.0,-5.01,-6.0859,-0.4384,-1.3544,0.0023,0.3647
9069.0,-5.01,-6.0859,-0.4384,-1.3544,0.0023,0.3647
9074.0,-5.01,-6.0859,-0.4384,-1.1504,0.1147,0.4478
9079.0,-5.0053,-6.8676,-0.9218,-1.1504,0.1147,0.4478
9084.0,-5.0053,-6.8676,-0.9218,-1.1504,0.1147,0.4478
9089.0,-5.0053,-6.8676,-0.9218,-1.1504,0.1147,0.4478
9094.0,-5.0053,-6.8676,-0.9218,-1.1504,0.1147,0.4478
9098.0,-5.0053,-6.8676,-0.9218,-1.1504,0.1147,0.4478
9104.0,-5.2543,-7.1966,-1.1019,-1.1504,0.1147,0.4478
9109.0,-5.2543,-7.1966,-1.1019,-0.8248,0.5136,0.4655
9114.0,-5.2543,-7.1966,-1.1019,-0.8248,0.5136,0.4655
9120.0,-5.2543,-7.1966,-1.1019,-0.8248,0.5136,0.4655
9124.0,-5.2543,-7.1966,-1.1019,-0.8248,0.5136,0.4655
9128.0,-6.284,-7.6542,-2.007,-0.8248,0.5136,0.4655
9134.0,-6.284,-7.6542,-2.007,-0.8248,0.5136,0.4655
9139.0,-6.284,-7.6542,-2.007,-0.2634,0.2082,0.4484
9144.0,-6.284,-7.6542,-2.007,-0.2634,0.2082,0.4484
9148.0,-6.284,-7.6542,-2.007,-0.2634,0.2082,0.4484
9154.0,-6.284,-7.6542,-2.007,-0.2634,0.2082,0.4484
9159.0,-6.6719,-7.9926,-2.3767,-0.2634,0.2082,0.4484
9164.0,-6.6719,-7.9926,-2.3767,-0.2634,0.2082,0.4484
9168.0,-6.6719,-7.9926,-2.3767,0.1574,0.1434,0.2077
9174.0,-6.6719,-7.9926,-2.3767,0.1574,0.1434,0.2077
9178.0,-6.6719,-7.9926,-2.3767,0.1574,0.1434,0.2077
9184.0,-6.6719,-7.9926,-2.3767,0.1574,0.1434,0.2077
9189.0,-6.2265,-8.2262,-2.3767,0.1574,0.1434,0.2077
9194.0,-6.2265,-8.2262,-2.3767,0.1574,0.1434,0.2077
9199.0,-6.2265,-8.2262,-2.3767,0.1574,0.1434,0.2077
9204.0,-6.2265,-8.2262,-2.3767,0.5264,0.1611,-0.1026
9209.0,-6.2265,-8.2262,-2.3767,0.5264,0.1611,-0.1026
9214.0,-6.1355,-9.0032,-0.8839,0.5264,0.1611,-0.1026
9219.0,-6.1355,-9.0032,-0.8839,0.5264,0.1611,-0.1026
9223.0,-6.1355,-9.0032,-0.8839,0.5264,0.1611,-0.1026
9228.0,-6.1355,-9.0032,-0.8839,0.5264,0.1611,-0.1026
9234.0,-6.1355,-9.0032,-0.8839,1.3175,0.0243,-0.3176
9239.0,-4.7514,-7.7257,-1.4147,1.3175,0.0243,-0.3176
9243.0,-4.7514,-7.7257,-1.4147,1.3175,0.0243,-0.3176
9249.0,-4.7514,-7.7257,-1.4147,1.3175,0.0243,-0.3176
9254.0,-4.7514,-7.7257,-1.4147,1.3175,0.0243,-0.3176
9258.0,-4.7514,-7.7257,-1.4147,1.3175,0.0243,-0.3176
9263.0,-4.7514,-7.7257,-1.4147,1.1098,-0.633,-0.1661
9269.0,-4.1528,-5.8523,-2.2724,1.1098,-0.633,-0.1661
9274.0,-4.1528,-5.8523,-2.2724,1.1098,-0.633,-0.1661
9278.0,-4.1528,-5.8523,-2.2724,1.1098,-0.633,-0.1661
9284.0,-4.1528,-5.8523,-2.2724,1.1098,-0.633,-0.1661
9289.0,-4.1528,-5.8523,-2.2724,1.1098,-0.633,-0.1661
9294.0,-3.0608,-6.1622,-1.0071,1.1098,-0.633,-0.1661
9299.0,-3.0608,-6.1622,-1.0071,1.4116,-0.1369,-0.1594
9304.0,-3.0608,-6.1622,-1.0071,1.4116,-0.1369,-0.1594
9309.0,-3.0608,-6.1622,-1.0071,1.4116,-0.1369,-0.1594
9313.0,-3.0608,-6.1622,-1.0071,1.4116,-0.1369,-0.1594
9318.0,-4.0905,-6.0764,-3.2724,1.4116,-0.1369,-0.1594
9323.0,-4.0905,-6.0764,-3.2724,1.4116,-0.1369,-0.1594
9329.0,-4.0905,-6.0764,-3.2724,1.5032,-0.5169,-0.3164
9333.0,-4.0905,-6.0764,-3.2724,1.5032,-0.5169,-0.3164
9339.0,-4.0905,-6.0764,-3.2724,1.5032,-0.5169,-0.3164
9343.0,-4.0905,-6.0764,-3.2724,1.5032,-0.5169,-0.3164
9348.0,-6.1116,-6.4386,1.4762,1.5032,-0.5169,-0.3164
9354.0,-6.1116,-6.4386,1.4762,1.5032,-0.5169,-0.3164
9359.0,-6.1116,-6.4386,1.4762,1.5032,-0.5169,-0.3164
9364.0,-6.1116,-6.4386,1.4762,2.1458,0.2949,0.2065
9369.0,-6.1116,-6.4386,1.4762,2.1458,0.2949,0.2065
9374.0,-6.4564,-5.5568,0.6231,2.1458,0.2949,0.2065
9379.0,-6.4564,-5.5568,0.6231,2.1458,0.2949,0.2065
9383.0,-6.4564,-5.5568,0.6231,2.1458,0.2949,0.2065
9388.0,-6.4564,-5.5568,0.6231,2.1458,0.2949,0.2065
9393.0,-6.4564,-5.5568,0.6231,2.0744,0.7861,-0.7807
9398.0,-6.4564,-5.5568,0.6231,2.0744,0.7861,-0.7807
9404.0,-7.3424,-4.9371,-0.647,2.0744,0.7861,-0.7807
9409.0,-7.3424,-4.9371,-0.647,2.0744,0.7861,-0.7807
9414.0,-7.3424,-4.9371,-0.647,2.0744,0.7861,-0.7807
9419.0,-7.3424,-4.9371,-0.647,2.0744,0.7861,-0.7807
9424.0,-7.3424,-4.9371,-0.647,1.8844,1.0414,-1.1136
9429.0,-4.8951,-6.2241,-2.3293,1.8844,1.0414,-1.1136
9434.0,-4.8951,-6.2241,-2.3293,1.8844,1.0414,-1.1136
9439.0,-4.8951,-6.2241,-2.3293,1.8844,1.0414,-1.1136
9444.0,-4.8951,-6.2241,-2.3293,1.8844,1.0414,-1.1136
9449.0,-4.8951,-6.2241,-2.3293,1.8844,1.0414,-1.1136
9453.0,-4.8951,-6.2241,-2.3293,1.866,0.3145,-0.3812
9458.0,-4.5264,-6.5387,0.0734,1.866,0.3145,-0.3812
9464.0,-4.5264,-6.5387,0.0734,1.866,0.3145,-0.3812
9469.0,-4.5264,-6.5387,0.0734,1.866,0.3145,-0.3812
9473.0,-4.5264,-6.5387,0.0734,1.866,0.3145,-0.3812
9479.0,-4.5264,-6.5387,0.0734,1.866,0.3145,-0.3812
9483.0,-6.1882,-7.7733,-1.372,1.7304,-0.0979,-0.6646
9489.0,-6.1882,-7.7733,-1.372,1.7304,-0.0979,-0.6646
9494.0,-6.1882,-7.7733,-1.372,1.7304,-0.0979,-0.6646
9498.0,-6.1882,-7.7733,-1.372,1.7304,-0.0979,-0.6646
9503.0,-6.1882,-7.7733,-1.372,1.7304,-0.0979,-0.6646
9509.0,-7.7591,-6.0477,-2.443,1.7304,-0.0979,-0.6646
9514.0,-7.7591,-6.0477,-2.443,1.6284,-0.7222,-0.5602
9518.0,-7.7591,-6.0477,-2.443,1.6284,-0.7222,-0.5602
9523.0,-7.7591,-6.0477,-2.443,1.6284,-0.7222,-0.5602
9528.0,-7.7591,-6.0477,-2.443,1.6284,-0.7222,-0.5602
9533.0,-7.7591,-6.0477,-2.443,1.6284,-0.7222,-0.5602
9538.0,-8.7121,-5.981,-0.6706,1.6284,-0.7222,-0.5602
9543.0,-8.7121,-5.981,-0.6706,1.6547,1.006,-0.7153
9548.0,-8.7121,-5.981,-0.6706,1.6547,1.006,-0.7153
9553.0,-8.7121,-5.981,-0.6706,1.6547,1.006,-0.7153
9558.0,-8.7121,-5.981,-0.6706,1.6547,1.006,-0.7153
9564.0,-6.9545,-5.3566,-4.1444,1.6547,1.006,-0.7153
9569.0,-6.9545,-5.3566,-4.1444,1.6547,1.006,-0.7153
9573.0,-6.9545,-5.3566,-4.1444,1.4635,-0.3416,-0.4594
9579.0,-6.9545,-5.3566,-4.1444,1.4635,-0.3416,-0.4594
9584.0,-6.9545,-5.3566,-4.1444,1.4635,-0.3416,-0.4594
9589.0,-6.7007,-5.8666,-1.5663,1.4635,-0.3416,-0.4594
9594.0,-6.7007,-5.8666,-1.5663,1.4635,-0.3416,-0.4594
9599.0,-6.7007,-5.8666,-1.5663,1.4635,-0.3416,-0.4594
9603.0,-6.7007,-5.8666,-1.5663,1.4415,0.1392,-0.6286
9609.0,-6.7007,-5.8666,-1.5663,1.4415,0.1392,-0.6286
9614.0,-6.7007,-5.8666,-1.5663,1.4415,0.1392,-0.6286
9618.0,-8.3338,-5.4376,-2.5284,1.4415,0.1392,-0.6286
9623.0,-8.3338,-5.4376,-2.5284,1.4415,0.1392,-0.6286
9629.0,-8.3338,-5.4376,-2.5284,1.4415,0.1392,-0.6286
9634.0,-8.3338,-5.4376,-2.5284,1.3798,-0.4583,-0.4129
9638.0,-8.3338,-5.4376,-2.5284,1.3798,-0.4583,-0.4129
9644.0,-8.3338,-5.4376,-2.5284,1.3798,-0.4583,-0.4129
9648.0,-8.9564,-5.7236,-2.6326,1.3798,-0.4583,-0.4129
9654.0,-8.9564,-5.7236,-2.6326,1.3798,-0.4583,-0.4129
9658.0,-8.9564,-5.7236,-2.6326,1.3798,-0.4583,-0.4129
9664.0,-8.9564,-5.7236,-2.6326,1.3187,-0.5297,-0.3305
9668.0,-8.9564,-5.7236,-2.6326,1.3187,-0.5297,-0.3305
9674.0,-9.9956,-5.6902,-3.0165,1.3187,-0.5297,-0.3305
9678.0,-9.9956,-5.6902,-3.0165,1.3187,-0.5297,-0.3305
9684.0,-9.9956,-5.6902,-3.0165,1.3187,-0.5297,-0.3305
9688.0,-9.9956,-5.6902,-3.0165,1.3187,-0.5297,-0.3305
9694.0,-9.9956,-5.6902,-3.0165,1.3187,-0.5297,-0.3305
9699.0,-9.9956,-5.6902,-3.0165,1.2814,-0.1363,-0.4441
9704.0,-10.077,-4.2364,-2.7321,1.2814,-0.1363,-0.4441
9708.0,-10.077,-4.2364,-2.7321,1.2814,-0.1363,-0.4441
9714.0,-10.077,-4.2364,-2.7321,1.2814,-0.1363,-0.4441
9718.0,-10.077,-4.2364,-2.7321,1.2814,-0.1363,-0.4441
9724.0,-10.077,-4.2364,-2.7321,1.2814,-0.1363,-0.4441
9728.0,-9.1815,-3.0542,-1.8364,1.1269,0.331,-0.4734
9734.0,-9.1815,-3.0542,-1.8364,1.1269,0.331,-0.4734
9738.0,-9.1815,-3.0542,-1.8364,1.1269,0.331,-0.4734
9744.0,-9.1815,-3.0542,-1.8364,1.1269,0.331,-0.4734
9748.0,-9.1815,-3.0542,-1.8364,1.1269,0.331,-0.4734
9753.0,-9.7083,-2.9732,-3.097,1.1269,0.331,-0.4734
9759.0,-9.7083,-2.9732,-3.097,1.1269,0.331,-0.4734
9763.0,-9.7083,-2.9732,-3.097,1.0511,-0.0789,-0.4844
9769.0,-9.7083,-2.9732,-3.097,1.0511,-0.0789,-0.4844
9774.0,-9.7083,-2.9732,-3.097,1.0511,-0.0789,-0.4844
9778.0,-9.7083,-2.9732,-3.097,1.0511,-0.0789,-0.4844
9784.0,-10.5703,-2.015,-1.6327,1.0511,-0.0789,-0.4844
9788.0,-10.5703,-2.015,-1.6327,1.0511,-0.0789,-0.4844
9794.0,-10.5703,-2.015,-1.6327,0.9143,-0.2029,-0.4667
9798.0,-10.5703,-2.015,-1.6327,0.9143,-0.2029,-0.4667
9804.0,-10.5703,-2.015,-1.6327,0.9143,-0.2029,-0.4667
9808.0,-11.8107,-0.9902,-1.8128,0.9143,-0.2029,-0.4667
9813.0,-11.8107,-0.9902,-1.8128,0.9143,-0.2029,-0.4667
9819.0,-11.8107,-0.9902,-1.8128,0.9143,-0.2029,-0.4667
9823.0,-11.8107,-0.9902,-1.8128,0.9143,-0.2029,-0.4667
9829.0,-11.8107,-0.9902,-1.8128,0.6901,0.0286,-0.3726
9833.0,-11.8107,-0.9902,-1.8128,0.6901,0.0286,-0.3726
9838.0,-11.7102,-1.3334,-1.4241,0.6901,0.0286,-0.3726
9844.0,-11.7102,-1.3334,-1.4241,0.6901,0.0286,-0.3726
9848.0,-11.7102,-1.3334,-1.4241,0.6901,0.0286,-0.3726
9854.0,-11.7102,-1.3334,-1.4241,0.6901,0.0286,-0.3726
9859.0,-11.7102,-1.3334,-1.4241,0.422,0.2949,-0.2486
9863.0,-10.6134,-1.7433,-1.8128,0.422,0.2949,-0.2486
9869.0,-10.6134,-1.7433,-1.8128,0.422,0.2949,-0.2486
9873.0,-10.6134,-1.7433,-1.8128,0.422,0.2949,-0.2486
9879.0,-10.6134,-1.7433,-1.8128,0.422,0.2949,-0.2486
9884.0,-10.6134,-1.7433,-1.8128,0.422,0.2949,-0.2486
9889.0,-10.6086,-1.6861,-1.9265,0.3865,0.3835,-0.2242
9893.0,-10.6086,-1.6861,-1.9265,0.3865,0.3835,-0.2242
9898.0,-10.6086,-1.6861,-1.9265,0.3865,0.3835,-0.2242
9904.0,-10.6086,-1.6861,-1.9265,0.3865,0.3835,-0.2242
9908.0,-10.6086,-1.6861,-1.9265,0.3865,0.3835,-0.2242
9914.0,-12.5866,-1.7529,-1.7322,0.3865,0.3835,-0.2242
9918.0,-12.5866,-1.7529,-1.7322,-0.0154,-0.1443,-0.0098
9924.0,-12.5866,-1.7529,-1.7322,-0.0154,-0.1443,-0.0098
9929.0,-12.5866,-1.7529,-1.7322,-0.0154,-0.1443,-0.0098
9933.0,-12.5866,-1.7529,-1.7322,-0.0154,-0.1443,-0.0098
9939.0,-11.6671,-2.5394,-2.026,-0.0154,-0.1443,-0.0098
9943.0,-11.6671,-2.5394,-2.026,-0.0154,-0.1443,-0.0098
9949.0,-11.6671,-2.5394,-2.026,-0.2641,0.1496,0.1802
9954.0,-11.6671,-2.5394,-2.026,-0.2641,0.1496,0.1802
9958.0,-11.6671,-2.5394,-2.026,-0.2641,0.1496,0.1802
9964.0,-11.6671,-2.5394,-2.026,-0.2641,0.1496,0.1802
9969.0,-11.2169,-2.6014,-2.2867,-0.2641,0.1496,0.1802
9973.0,-11.2169,-2.6014,-2.2867,-0.2641,0.1496,0.1802
9979.0,-11.2169,-2.6014,-2.2867,-0.2641,0.1496,0.1802
9983.0,-11.2169,-2.6014,-2.2867,-0.5151,-0.1351,0.3287
9989.0,-11.2169,-2.6014,-2.2867,-0.5151,-0.1351,0.3287
9993.0,-11.3749,-3.0018,-2.1919,-0.5151,-0.1351,0.3287
9998.0,-11.3749,-3.0018,-2.1919,-0.5151,-0.1351,0.3287
10004.0,-11.3749,-3.0018,-2.1919,-0.5151,-0.1351,0.3287
10008.0,-11.3749,-3.0018,-2.1919,-0.5151,-0.1351,0.3287
10013.0,-11.3749,-3.0018,-2.1919,-0.7876,-0.3379,0.5034
10019.0,-11.3749,-3.0018,-2.1919,-0.7876,-0.3379,0.5034
10024.0,-11.8251,-3.0828,-2.6184,-0.7876,-0.3379,0.5034
10028.0,-11.8251,-3.0828,-2.6184,-0.7876,-0.3379,0.5034
10034.0,-11.8251,-3.0828,-2.6184,-0.7876,-0.3379,0.5034
10039.0,-11.8251,-3.0828,-2.6184,-0.7876,-0.3379,0.5034
10043.0,-11.8251,-3.0828,-2.6184,-0.9806,-0.1064,0.5156
10048.0,-11.351,-3.0256,-3.0402,-0.9806,-0.1064,0.5156
10054.0,-11.351,-3.0256,-3.0402,-0.9806,-0.1064,0.5156
10059.0,-11.351,-3.0256,-3.0402,-0.9806,-0.1064,0.5156
10063.0,-11.351,-3.0256,-3.0402,-0.9806,-0.1064,0.5156
10069.0,-11.351,-3.0256,-3.0402,-0.9806,-0.1064,0.5156
10073.0,-10.1201,-3.4642,-3.1255,-0.9806,-0.1064,0.5156
10078.0,-10.1201,-3.4642,-3.1255,-1.2011,0.3591,0.4985
10084.0,-10.1201,-3.4642,-3.1255,-1.2011,0.3591,0.4985
10089.0,-10.1201,-3.4642,-3.1255,-1.2011,0.3591,0.4985
10094.0,-10.1201,-3.4642,-3.1255,-1.2011,0.3591,0.4985
10098.0,-10.1201,-3.4642,-3.1255,-1.2011,0.3591,0.4985
10103.0,-9.3587,-3.6977,-3.0686,-1.2011,0.3591,0.4985
10109.0,-9.3587,-3.6977,-3.0686,-1.3551,0.3841,0.4435
10113.0,-9.3587,-3.6977,-3.0686,-1.3551,0.3841,0.4435
10118.0,-9.3587,-3.6977,-3.0686,-1.3551,0.3841,0.4435
10124.0,-9.3587,-3.6977,-3.0686,-1.3551,0.3841,0.4435
10128.0,-9.3443,-3.8169,-2.9454,-1.3551,0.3841,0.4435
10134.0,-9.3443,-3.8169,-2.9454,-1.3551,0.3841,0.4435
10139.0,-9.3443,-3.8169,-2.9454,-1.4546,0.1166,0.4435
10144.0,-9.3443,-3.8169,-2.9454,-1.4546,0.1166,0.4435
10149.0,-9.3443,-3.8169,-2.9454,-1.4546,0.1166,0.4435
10154.0,-9.3443,-3.8169,-2.9454,-1.4546,0.1166,0.4435
10159.0,-9.2533,-4.3269,-2.5284,-1.4546,0.1166,0.4435
10164.0,-9.2533,-4.3269,-2.5284,-1.4546,0.1166,0.4435
10169.0,-9.2533,-4.3269,-2.5284,-1.6348,0.1935,0.4832
10173.0,-9.2533,-4.3269,-2.5284,-1.6348,0.1935,0.4832
10179.0,-9.2533,-4.3269,-2.5284,-1.6348,0.1935,0.4832
10184.0,-8.7456,-4.6606,-2.3625,-1.6348,0.1935,0.4832
10189.0,-8.7456,-4.6606,-2.3625,-1.6348,0.1935,0.4832
10194.0,-8.7456,-4.6606,-2.3625,-1.6348,0.1935,0.4832
10198.0,-8.7456,-4.6606,-2.3625,-1.7301,0.2173,0.5345
10204.0,-8.7456,-4.6606,-2.3625,-1.7301,0.2173,0.5345
10208.0,-8.7456,-4.6606,-2.3625,-1.7301,0.2173,0.5345
10213.0,-8.2763,-4.5939,-2.5426,-1.7301,0.2173,0.5345
10218.0,-8.2763,-4.5939,-2.5426,-1.7301,0.2173,0.5345
10224.0,-8.2763,-4.5939,-2.5426,-1.7301,0.2173,0.5345
10228.0,-8.2763,-4.5939,-2.5426,-1.7301,0.2173,0.5345
10234.0,-8.2763,-4.5939,-2.5426,-1.7698,0.185,0.5583
10239.0,-7.2897,-4.5558,-2.8127,-1.7698,0.185,0.5583
10243.0,-7.2897,-4.5558,-2.8127,-1.7698,0.185,0.5583
10249.0,-7.2897,-4.5558,-2.8127,-1.7698,0.185,0.5583
10253.0,-7.2897,-4.5558,-2.8127,-1.7698,0.185,0.5583
10258.0,-7.2897,-4.5558,-2.8127,-1.7698,0.185,0.5583
10264.0,-6.6671,-5.4567,-3.3293,-1.9323,0.0359,0.5113
10269.0,-6.6671,-5.4567,-3.3293,-1.9323,0.0359,0.5113
10274.0,-6.6671,-5.4567,-3.3293,-1.9323,0.0359,0.5113
10278.0,-6.6671,-5.4567,-3.3293,-1.9323,0.0359,0.5113
10284.0,-6.6671,-5.4567,-3.3293,-1.9323,0.0359,0.5113
10288.0,-6.6671,-5.4567,-3.3293,-1.9323,0.0359,0.5113
10295.0,-6.3175,-6.2146,-2.7179,-1.9849,-0.1577,0.4869
10298.0,-6.3175,-6.2146,-2.7179,-1.9849,-0.1577,0.4869
10304.0,-6.3175,-6.2146,-2.7179,-1.9849,-0.1577,0.4869
10308.0,-6.3175,-6.2146,-2.7179,-1.9849,-0.1577,0.4869
10313.0,-6.3175,-6.2146,-2.7179,-1.9849,-0.1577,0.4869
10318.0,-6.3175,-6.2146,-2.7179,-1.9849,-0.1577,0.4869
10323.0,-5.6327,-6.472,-1.936,-1.9953,-0.6165,0.5009
10329.0,-5.6327,-6.472,-1.936,-1.9953,-0.6165,0.5009
10333.0,-5.6327,-6.472,-1.936,-1.9953,-0.6165,0.5009
10338.0,-5.6327,-6.472,-1.936,-1.9953,-0.6165,0.5009
10344.0,-5.6327,-6.472,-1.936,-1.9953,-0.6165,0.5009
10349.0,-5.6231,-6.7294,-1.5948,-1.9953,-0.6165,0.5009
10353.0,-5.6231,-6.7294,-1.5948,-1.9696,-0.7362,0.4453
10359.0,-5.6231,-6.7294,-1.5948,-1.9696,-0.7362,0.4453
10363.0,-5.6231,-6.7294,-1.5948,-1.9696,-0.7362,0.4453
10368.0,-5.6231,-6.7294,-1.5948,-1.9696,-0.7362,0.4453
10374.0,-5.4363,-6.5959,-0.647,-1.9696,-0.7362,0.4453
10378.0,-5.4363,-6.5959,-0.647,-1.9696,-0.7362,0.4453
10383.0,-5.4363,-6.5959,-0.647,-1.9696,-0.7362,0.4453
10389.0,-5.4363,-6.5959,-0.647,-1.8914,-0.49,0.3238
10393.0,-5.4363,-6.5959,-0.647,-1.8914,-0.49,0.3238
10398.0,-5.4363,-6.5959,-0.647,-1.8914,-0.49,0.3238
10404.0,-5.3692,-6.5054,-0.3863,-1.8914,-0.49,0.3238
10408.0,-5.3692,-6.5054,-0.3863,-1.8914,-0.49,0.3238
10413.0,-5.3692,-6.5054,-0.3863,-1.8914,-0.49,0.3238
10419.0,-5.3692,-6.5054,-0.3863,-1.8596,-0.3617,0.3482
10424.0,-5.3692,-6.5054,-0.3863,-1.8596,-0.3617,0.3482
10428.0,-5.4554,-6.4291,-0.9692,-1.8596,-0.3617,0.3482
10433.0,-5.4554,-6.4291,-0.9692,-1.8596,-0.3617,0.3482
10439.0,-5.4554,-6.4291,-0.9692,-1.8596,-0.3617,0.3482
10443.0,-5.4554,-6.4291,-0.9692,-1.8596,-0.3617,0.3482
10448.0,-5.4554,-6.4291,-0.9692,-1.8108,-0.162,0.3659
10454.0,-5.4794,-6.4577,-0.0072,-1.8108,-0.162,0.3659
10458.0,-5.4794,-6.4577,-0.0072,-1.8108,-0.162,0.3659
10463.0,-5.4794,-6.4577,-0.0072,-1.8108,-0.162,0.3659
10469.0,-5.4794,-6.4577,-0.0072,-1.8108,-0.162,0.3659
10473.0,-5.4794,-6.4577,-0.0072,-1.8108,-0.162,0.3659
10479.0,-5.4794,-6.4577,-0.0072,-1.8053,0.254,0.4288
10483.0,-5.0867,-6.9344,-1.4005,-1.8053,0.254,0.4288
10489.0,-5.0867,-6.9344,-1.4005,-1.8053,0.254,0.4288
10493.0,-5.0867,-6.9344,-1.4005,-1.8053,0.254,0.4288
10498.0,-5.0867,-6.9344,-1.4005,-1.8053,0.254,0.4288
10503.0,-5.0867,-6.9344,-1.4005,-1.8053,0.254,0.4288
10509.0,-4.5455,-6.9725,-1.0592,-1.6507,0.2552,0.3684
10513.0,-4.5455,-6.9725,-1.0592,-1.6507,0.2552,0.3684
10519.0,-4.5455,-6.9725,-1.0592,-1.6507,0.2552,0.3684
10523.0,-4.5455,-6.9725,-1.0592,-1.6507,0.2552,0.3684
10529.0,-4.5455,-6.9725,-1.0592,-1.6507,0.2552,0.3684
10533.0,-4.5455,-6.9725,-1.0592,-1.6507,0.2552,0.3684
10539.0,-4.306,-6.8248,-1.0687,-1.1828,0.3731,0.5235
10543.0,-4.306,-6.8248,-1.0687,-1.1828,0.3731,0.5235
10549.0,-4.306,-6.8248,-1.0687,-1.1828,0.3731,0.5235
10553.0,-4.306,-6.8248,-1.0687,-1.1828,0.3731,0.5235
10558.0,-4.306,-6.8248,-1.0687,-1.1828,0.3731,0.5235
10564.0,-3.9612,-6.8105,-1.7227,-1.1828,0.3731,0.5235
10568.0,-3.9612,-6.8105,-1.7227,-0.9751,0.4397,0.5388
10574.0,-3.9612,-6.8105,-1.7227,-0.9751,0.4397,0.5388
10579.0,-3.9612,-6.8105,-1.7227,-0.9751,0.4397,0.5388
10583.0,-3.9612,-6.8105,-1.7227,-0.9751,0.4397,0.5388
10588.0,-4.239,-7.5207,-1.0972,-0.9751,0.4397,0.5388
10594.0,-4.239,-7.5207,-1.0972,-0.9751,0.4397,0.5388
10598.0,-4.239,-7.5207,-1.0972,-0.9751,0.4397,0.5388
10604.0,-4.239,-7.5207,-1.0972,-0.7888,0.5943,0.413
10609.0,-4.239,-7.5207,-1.0972,-0.7888,0.5943,0.413
10614.0,-4.239,-7.5207,-1.0972,-0.7888,0.5943,0.413
10619.0,-4.3683,-8.3358,-0.9076,-0.7888,0.5943,0.413
10623.0,-4.3683,-8.3358,-0.9076,-0.7888,0.5943,0.413
10629.0,-4.3683,-8.3358,-0.9076,-0.7888,0.5943,0.413
10633.0,-4.3683,-8.3358,-0.9076,-0.399,0.579,0.3311
10639.0,-4.3683,-8.3358,-0.9076,-0.399,0.579,0.3311
10644.0,-3.8127,-8.5742,-2.3577,-0.399,0.579,0.3311
10649.0,-3.8127,-8.5742,-2.3577,-0.399,0.579,0.3311
10653.0,-3.8127,-8.5742,-2.3577,-0.399,0.579,0.3311
10658.0,-3.8127,-8.5742,-2.3577,-0.399,0.579,0.3311
10664.0,-3.8127,-8.5742,-2.3577,-0.0942,-0.0526,0.1246
10668.0,-4.0666,-8.2357,-1.0829,-0.0942,-0.0526,0.1246
10674.0,-4.0666,-8.2357,-1.0829,-0.0942,-0.0526,0.1246
10679.0,-4.0666,-8.2357,-1.0829,-0.0942,-0.0526,0.1246
10683.0,-4.0666,-8.2357,-1.0829,-0.0942,-0.0526,0.1246
10689.0,-4.0666,-8.2357,-1.0829,-0.0942,-0.0526,0.1246
10694.0,-4.0666,-8.2357,-1.0829,0.5222,0.0824,-0.0721
10698.0,-4.7802,-8.8602,-0.7654,0.5222,0.0824,-0.0721
10704.0,-4.7802,-8.8602,-0.7654,0.5222,0.0824,-0.0721
10708.0,-4.7802,-8.8602,-0.7654,0.5222,0.0824,-0.0721
10714.0,-4.7802,-8.8602,-0.7654,0.5222,0.0824,-0.0721
10719.0,-4.7802,-8.8602,-0.7654,0.5222,0.0824,-0.0721
10723.0,-4.2342,-9.2415,-1.6658,0.5222,0.0824,-0.0721
10728.0,-4.2342,-9.2415,-1.6658,1.2411,-0.3691,-0.361
10734.0,-4.2342,-9.2415,-1.6658,1.2411,-0.3691,-0.361
10739.0,-4.2342,-9.2415,-1.6658,1.2411,-0.3691,-0.361
10743.0,-4.2342,-9.2415,-1.6658,1.2411,-0.3691,-0.361
10749.0,-4.3587,-7.5731,-1.699,1.2411,-0.3691,-0.361
10754.0,-4.3587,-7.5731,-1.699,1.2411,-0.3691,-0.361
10759.0,-4.3587,-7.5731,-1.699,1.1678,-1.2029,-0.1435
10763.0,-4.3587,-7.5731,-1.699,1.1678,-1.2029,-0.1435
10768.0,-4.3587,-7.5731,-1.699,1.1678,-1.2029,-0.1435
10774.0,-4.3587,-7.5731,-1.699,1.1678,-1.2029,-0.1435
10778.0,-4.5215,-7.5064,0.2582,1.1678,-1.2029,-0.1435
10784.0,-4.5215,-7.5064,0.2582,1.1678,-1.2029,-0.1435
10789.0,-4.5215,-7.5064,0.2582,1.4684,-0.7246,-0.2095
10793.0,-4.5215,-7.5064,0.2582,1.4684,-0.7246,-0.2095
10799.0,-4.5215,-7.5064,0.2582,1.4684,-0.7246,-0.2095
10804.0,-4.5215,-7.5064,0.2582,1.4684,-0.7246,-0.2095
10809.0,-4.5215,-7.5064,0.2582,1.4684,-0.7246,-0.2095
10814.0,-4.5215,-7.5064,0.2582,1.4684,-0.7246,-0.2095
10819.0,-4.5215,-7.5064,0.2582,1.4684,-0.7246,-0.2095
10823.0,-4.5215,-7.5064,0.2582,1.4684,-0.7246,-0.2095
10831.0,-4.5215,-7.5064,0.2582,1.4684,-0.7246,-0.2095
10834.0,-4.5215,-7.5064,0.2582,1.4684,-0.7246,-0.2095
10838.0,-3.6116,-6.4863,-1.5805,1.4788,-0.4106,-0.2682
10850.0,-3.6116,-6.4863,-1.5805,1.4788,-0.4106,-0.2682
10850.0,-3.6116,-6.4863,-1.5805,1.4788,-0.4106,-0.2682
10853.0,-3.6116,-6.4863,-1.5805,1.4788,-0.4106,-0.2682
10859.0,-3.6116,-6.4863,-1.5805,1.4788,-0.4106,-0.2682
10863.0,-3.6116,-6.4863,-1.5805,1.4788,-0.4106,-0.2682
10868.0,-5.3309,-5.8952,1.3861,1.4788,-0.4106,-0.2682
10874.0,-5.3309,-5.8952,1.3861,2.0725,0.3737,-0.0562
10878.0,-5.3309,-5.8952,1.3861,2.0725,0.3737,-0.0562
10883.0,-5.3309,-5.8952,1.3861,2.0725,0.3737,-0.0562
10889.0,-5.3309,-5.8952,1.3861,2.0725,0.3737,-0.0562
10893.0,-5.3309,-5.8952,1.3861,2.0725,0.3737,-0.0562
10898.0,-6.5761,-7.0345,-2.154,2.0725,0.3737,-0.0562
10904.0,-6.5761,-7.0345,-2.154,2.3517,-0.0062,-1.1539
10909.0,-6.5761,-7.0345,-2.154,2.3517,-0.0062,-1.1539
10913.0,-6.5761,-7.0345,-2.154,2.3517,-0.0062,-1.1539
10918.0,-6.5761,-7.0345,-2.154,2.3517,-0.0062,-1.1539
10924.0,-6.1978,-6.9964,-1.2867,2.3517,-0.0062,-1.1539
10928.0,-6.1978,-6.9964,-1.2867,2.3517,-0.0062,-1.1539
10933.0,-6.1978,-6.9964,-1.2867,2.0597,1.4855,-0.9737
10939.0,-6.1978,-6.9964,-1.2867,2.0597,1.4855,-0.9737
10943.0,-6.1978,-6.9964,-1.2867,2.0597,1.4855,-0.9737
10949.0,-5.6039,-6.4482,-2.1208,2.0597,1.4855,-0.9737
10953.0,-5.6039,-6.4482,-2.1208,2.0597,1.4855,-0.9737
10959.0,-5.6039,-6.4482,-2.1208,2.0597,1.4855,-0.9737
