time in milliseconds,acceleration_x,acceleration_y,acceleration_z,Roll,Pitch,Yaw
4.0,-4.7891,0.2458,8.1076,0.3387,-0.8067,0.4815
8.0,-4.7891,0.2458,8.1076,0.3387,-0.8067,0.4815
13.0,-4.7891,0.2458,8.1076,0.3387,-0.8067,0.4815
18.0,-4.7891,0.2458,8.1076,0.3387,-0.8067,0.4815
23.0,-4.7891,0.2458,8.1076,0.3387,-0.8067,0.4815
28.0,-4.7891,0.2458,8.1076,0.3387,-0.8067,0.4815
34.0,-4.7795,0.6081,8.0602,0.5256,-0.7481,0.7485
38.0,-4.7795,0.6081,8.0602,0.5256,-0.7481,0.7485
43.0,-4.7795,0.6081,8.0602,0.5256,-0.7481,0.7485
48.0,-4.7795,0.6081,8.0602,0.5256,-0.7481,0.7485
53.0,-4.7795,0.6081,8.0602,0.5256,-0.7481,0.7485
58.0,-4.7795,0.5033,9.7615,0.5256,-0.7481,0.7485
63.0,-4.7795,0.5033,9.7615,0.5256,-0.7481,0.7485
68.0,-4.7795,0.5033,9.7615,0.5256,-0.7481,0.7485
73.0,-4.7795,0.5033,9.7615,0.7858,0.0979,0.352
78.0,-4.7795,0.5033,9.7615,0.7858,0.0979,0.352
83.0,-6.4414,0.1314,5.7665,0.7858,0.0979,0.352
88.0,-6.4414,0.1314,5.7665,0.7858,0.0979,0.352
93.0,-6.4414,0.1314,5.7665,0.7858,0.0979,0.352
98.0,-6.4414,0.1314,5.7665,0.7858,0.0979,0.352
104.0,-6.4414,0.1314,5.7665,0.5109,0.3001,-0.8062
108.0,-6.4414,0.1314,5.7665,0.5109,0.3001,-0.8062
113.0,-0.9721,0.6749,7.2119,0.5109,0.3001,-0.8062
118.0,-0.9721,0.6749,7.2119,0.5109,0.3001,-0.8062
123.0,-0.9721,0.6749,7.2119,0.5109,0.3001,-0.8062
128.0,-0.9721,0.6749,7.2119,0.5109,0.3001,-0.8062
133.0,-0.9721,0.6749,7.2119,-0.8825,-0.045,-1.0756
138.0,-9.4395,-4.6449,11.4676,-0.8825,-0.045,-1.0756
143.0,-9.4395,-4.6449,11.4676,-0.8825,-0.045,-1.0756
148.0,-9.4395,-4.6449,11.4676,-0.8825,-0.045,-1.0756
154.0,-9.4395,-4.6449,11.4676,-0.8825,-0.045,-1.0756
158.0,-9.4395,-4.6449,11.4676,-0.8825,-0.045,-1.0756
163.0,-9.4395,-4.6449,11.4676,0.3368,1.5628,-0.4171
168.0,-6.1636,-3.4341,5.1551,0.3368,1.5628,-0.4171
173.0,-6.1636,-3.4341,5.1551,0.3368,1.5628,-0.4171
178.0,-6.1636,-3.4341,5.1551,0.3368,1.5628,-0.4171
183.0,-6.1636,-3.4341,5.1551,0.3368,1.5628,-0.4171
188.0,-6.1636,-3.4341,5.1551,0.3368,1.5628,-0.4171
193.0,-3.2901,4.0116,2.1032,-0.5538,1.9415,-0.9271
198.0,-3.2901,4.0116,2.1032,-0.5538,1.9415,-0.9271
203.0,-3.2901,4.0116,2.1032,-0.5538,1.9415,-0.9271
208.0,-3.2901,4.0116,2.1032,-0.5538,1.9415,-0.9271
213.0,-3.2901,4.0116,2.1032,-0.5538,1.9415,-0.9271
218.0,-3.2901,4.0116,2.1032,-0.5538,1.9415,-0.9271
223.0,-7.0113,1.5281,0.4445,-1.6112,4.09,-1.9265
228.0,-7.0113,1.5281,0.4445,-1.6112,4.09,-1.9265
233.0,-7.0113,1.5281,0.4445,-1.6112,4.09,-1.9265
238.0,-7.0113,1.5281,0.4445,-1.6112,4.09,-1.9265
243.0,-7.0113,1.5281,0.4445,-1.6112,4.09,-1.9265
249.0,-10.9002,-2.5809,-0.9867,-1.6112,4.09,-1.9265
253.0,-10.9002,-2.5809,-0.9867,-1.6112,4.09,-1.9265
258.0,-10.9002,-2.5809,-0.9867,-0.1616,3.4315,-1.596
263.0,-10.9002,-2.5809,-0.9867,-0.1616,3.4315,-1.596
269.0,-10.9002,-2.5809,-0.9867,-0.1616,3.4315,-1.596
273.0,-0.1819,-2.9765,-1.9534,-0.1616,3.4315,-1.596
278.0,-0.1819,-2.9765,-1.9534,-0.1616,3.4315,-1.596
283.0,-0.1819,-2.9765,-1.9534,-0.1616,3.4315,-1.596
288.0,-0.1819,-2.9765,-1.9534,-1.8354,6.0124,0.297
293.0,-0.1819,-2.9765,-1.9534,-1.8354,6.0124,0.297
299.0,7.3372,-6.3466,-7.6024,-1.8354,6.0124,0.297
303.0,7.3372,-6.3466,-7.6024,-1.8354,6.0124,0.297
308.0,7.3372,-6.3466,-7.6024,-1.8354,6.0124,0.297
313.0,7.3372,-6.3466,-7.6024,-1.8354,6.0124,0.297
319.0,7.3372,-6.3466,-7.6024,-1.8354,6.0124,0.297
323.0,7.3372,-6.3466,-7.6024,-3.6778,7.9568,1.2946
328.0,4.2912,-11.4519,-3.8064,-3.6778,7.9568,1.2946
333.0,4.2912,-11.4519,-3.8064,-3.6778,7.9568,1.2946
338.0,4.2912,-11.4519,-3.8064,-3.6778,7.9568,1.2946
343.0,4.2912,-11.4519,-3.8064,-3.6778,7.9568,1.2946
348.0,4.2912,-11.4519,-3.8064,-3.6778,7.9568,1.2946
353.0,3.6734,-17.5629,0.0796,-5.0517,10.1633,1.724
358.0,3.6734,-17.5629,0.0796,-5.0517,10.1633,1.724
363.0,3.6734,-17.5629,0.0796,-5.0517,10.1633,1.724
368.0,3.6734,-17.5629,0.0796,-5.0517,10.1633,1.724
373.0,3.6734,-17.5629,0.0796,-5.0517,10.1633,1.724
378.0,3.6734,-17.5629,0.0796,-5.0517,10.1633,1.724
383.0,-4.3916,-24.0172,1.9231,-6.9387,10.0845,2.5652
389.0,-4.3916,-24.0172,1.9231,-6.9387,10.0845,2.5652
393.0,-4.3916,-24.0172,1.9231,-6.9387,10.0845,2.5652
398.0,-4.3916,-24.0172,1.9231,-6.9387,10.0845,2.5652
403.0,-4.3916,-24.0172,1.9231,-6.9387,10.0845,2.5652
408.0,-22.0591,-27.3158,1.5155,-6.9387,10.0845,2.5652
413.0,-22.0591,-27.3158,1.5155,-6.0547,5.6941,5.4461
418.0,-22.0591,-27.3158,1.5155,-6.0547,5.6941,5.4461
423.0,-22.0591,-27.3158,1.5155,-6.0547,5.6941,5.4461
429.0,-22.0591,-27.3158,1.5155,-6.0547,5.6941,5.4461
433.0,-33.9076,-20.1752,-5.1902,-6.0547,5.6941,5.4461
438.0,-33.9076,-20.1752,-5.1902,-6.0547,5.6941,5.4461
443.0,-33.9076,-20.1752,-5.1902,-4.1574,-1.5459,4.7527
448.0,-33.9076,-20.1752,-5.1902,-4.1574,-1.5459,4.7527
454.0,-33.9076,-20.1752,-5.1902,-4.1574,-1.5459,4.7527
458.0,-33.9076,-20.1752,-5.1902,-4.1574,-1.5459,4.7527
463.0,-32.5475,-13.454,-3.3657,-4.1574,-1.5459,4.7527
468.0,-32.5475,-13.454,-3.3657,-4.1574,-1.5459,4.7527
473.0,-32.5475,-13.454,-3.3657,-4.1574,-1.5459,4.7527
478.0,-32.5475,-13.454,-3.3657,-3.2881,-2.7279,1.9207
483.0,-32.5475,-13.454,-3.3657,-3.2881,-2.7279,1.9207
488.0,-32.2649,-9.3926,-1.3516,-3.2881,-2.7279,1.9207
494.0,-32.2649,-9.3926,-1.3516,-3.2881,-2.7279,1.9207
498.0,-32.2649,-9.3926,-1.3516,-3.2881,-2.7279,1.9207
505.0,-32.2649,-9.3926,-1.3516,-3.2881,-2.7279,1.9207
508.0,-32.2649,-9.3926,-1.3516,-3.2881,-2.7279,1.9207
513.0,-32.2649,-9.3926,-1.3516,-3.2881,-2.7279,1.9207
518.0,-30.9574,-7.6051,2.5961,-0.8452,0.4975,1.8383
523.0,-30.9574,-7.6051,2.5961,-0.8452,0.4975,1.8383
528.0,-30.9574,-7.6051,2.5961,-0.8452,0.4975,1.8383
534.0,-30.9574,-7.6051,2.5961,-0.8452,0.4975,1.8383
538.0,-30.9574,-7.6051,2.5961,-0.8452,0.4975,1.8383
545.0,-30.9574,-7.6051,2.5961,-0.8452,0.4975,1.8383
549.0,-7.1837,-5.7222,0.1696,-5.235,-5.1219,-3.4396
553.0,-7.1837,-5.7222,0.1696,-5.235,-5.1219,-3.4396
558.0,-7.1837,-5.7222,0.1696,-5.235,-5.1219,-3.4396
564.0,-7.1837,-5.7222,0.1696,-5.235,-5.1219,-3.4396
568.0,-7.1837,-5.7222,0.1696,-5.235,-5.1219,-3.4396
573.0,7.6916,-11.2088,-5.2566,-5.235,-5.1219,-3.4396
578.0,7.6916,-11.2088,-5.2566,-5.235,-5.1219,-3.4396
584.0,7.6916,-11.2088,-5.2566,-5.4909,-3.3663,0.4779
588.0,7.6916,-11.2088,-5.2566,-5.4909,-3.3663,0.4779
593.0,7.6916,-11.2088,-5.2566,-5.4909,-3.3663,0.4779
598.0,7.6916,-11.2088,-5.2566,-5.4909,-3.3663,0.4779
603.0,3.3047,-9.0828,-1.7402,-5.4909,-3.3663,0.4779
608.0,3.3047,-9.0828,-1.7402,-5.4909,-3.3663,0.4779
613.0,3.3047,-9.0828,-1.7402,-2.2832,-2.2594,4.2188
618.0,3.3047,-9.0828,-1.7402,-2.2832,-2.2594,4.2188
623.0,3.3047,-9.0828,-1.7402,-2.2832,-2.2594,4.2188
628.0,0.1103,-7.4907,3.8756,-2.2832,-2.2594,4.2188
633.0,0.1103,-7.4907,3.8756,-2.2832,-2.2594,4.2188
638.0,0.1103,-7.4907,3.8756,-2.2832,-2.2594,4.2188
643.0,0.1103,-7.4907,3.8756,-2.2832,-2.2594,4.2188
649.0,0.1103,-7.4907,3.8756,-0.2057,-1.1195,0.1804
654.0,0.1103,-7.4907,3.8756,-0.2057,-1.1195,0.1804
658.0,0.1103,-7.4907,3.8756,-0.2057,-1.1195,0.1804
664.0,-2.8782,-9.2878,3.3211,-0.2057,-1.1195,0.1804
669.0,-2.8782,-9.2878,3.3211,-0.2057,-1.1195,0.1804
674.0,-2.8782,-9.2878,3.3211,-0.2057,-1.1195,0.1804
678.0,-2.8782,-9.2878,3.3211,1.8463,-1.4091,-1.6675
683.0,-2.8782,-9.2878,3.3211,1.8463,-1.4091,-1.6675
689.0,1.049,-9.1734,-1.7354,1.8463,-1.4091,-1.6675
693.0,1.049,-9.1734,-1.7354,1.8463,-1.4091,-1.6675
699.0,1.049,-9.1734,-1.7354,1.8463,-1.4091,-1.6675
703.0,1.049,-9.1734,-1.7354,1.8463,-1.4091,-1.6675
709.0,1.049,-9.1734,-1.7354,0.6654,0.7351,0.4834
713.0,1.049,-9.1734,-1.7354,0.6654,0.7351,0.4834
718.0,-1.8533,-7.9864,-1.5743,0.6654,0.7351,0.4834
723.0,-1.8533,-7.9864,-1.5743,0.6654,0.7351,0.4834
728.0,-1.8533,-7.9864,-1.5743,0.6654,0.7351,0.4834
733.0,-1.8533,-7.9864,-1.5743,0.6654,0.7351,0.4834
738.0,-1.8533,-7.9864,-1.5743,0.6654,0.7351,0.4834
744.0,-6.6042,-8.5728,2.3496,1.3484,1.9715,1.2476
748.0,-6.6042,-8.5728,2.3496,1.3484,1.9715,1.2476
753.0,-6.6042,-8.5728,2.3496,1.3484,1.9715,1.2476
758.0,-6.6042,-8.5728,2.3496,1.3484,1.9715,1.2476
763.0,-6.6042,-8.5728,2.3496,1.3484,1.9715,1.2476
768.0,-6.6042,-8.5728,2.3496,1.3484,1.9715,1.2476
773.0,-3.3715,-9.1972,3.7571,2.0949,1.6105,0.349
778.0,-3.3715,-9.1972,3.7571,2.0949,1.6105,0.349
783.0,-3.3715,-9.1972,3.7571,2.0949,1.6105,0.349
788.0,-3.3715,-9.1972,3.7571,2.0949,1.6105,0.349
793.0,-3.3715,-9.1972,3.7571,2.0949,1.6105,0.349
804.0,-3.3715,-9.1972,3.7571,2.0949,1.6105,0.349
804.0,-3.3715,-9.1972,3.7571,2.0949,1.6105,0.349
808.0,-3.1943,-7.9435,3.5486,1.4571,2.8346,-0.3297
813.0,-3.1943,-7.9435,3.5486,1.4571,2.8346,-0.3297
818.0,-3.1943,-7.9435,3.5486,1.4571,2.8346,-0.3297
823.0,-3.1943,-7.9435,3.5486,1.4571,2.8346,-0.3297
828.0,-3.1943,-7.9435,3.5486,1.4571,2.8346,-0.3297
833.0,-1.1924,-6.8329,1.435,1.4571,2.8346,-0.3297
838.0,-1.1924,-6.8329,1.435,1.652,3.718,0.9232
843.0,-1.1924,-6.8329,1.435,1.652,3.718,0.9232
848.0,-1.1924,-6.8329,1.435,1.652,3.718,0.9232
853.0,-1.1924,-6.8329,1.435,1.652,3.718,0.9232
859.0,-1.4127,-6.8996,1.6719,1.652,3.718,0.9232
863.0,-1.4127,-6.8996,1.6719,1.652,3.718,0.9232
868.0,-1.4127,-6.8996,1.6719,0.9159,4.0851,1.1871
873.0,-1.4127,-6.8996,1.6719,0.9159,4.0851,1.1871
878.0,-1.4127,-6.8996,1.6719,0.9159,4.0851,1.1871
883.0,-0.4932,-8.1866,2.8235,0.9159,4.0851,1.1871
888.0,-0.4932,-8.1866,2.8235,0.9159,4.0851,1.1871
893.0,-0.4932,-8.1866,2.8235,0.9159,4.0851,1.1871
898.0,-0.4932,-8.1866,2.8235,0.3442,3.4681,1.0166
903.0,-0.4932,-8.1866,2.8235,0.3442,3.4681,1.0166
908.0,-0.4932,-8.1866,2.8235,0.3442,3.4681,1.0166
913.0,0.024,-11.7808,2.9752,0.3442,3.4681,1.0166
918.0,0.024,-11.7808,2.9752,0.3442,3.4681,1.0166
923.0,0.024,-11.7808,2.9752,0.3442,3.4681,1.0166
929.0,0.024,-11.7808,2.9752,0.3313,3.0766,0.3905
933.0,0.024,-11.7808,2.9752,0.3313,3.0766,0.3905
938.0,-6.1109,-11.8285,-0.7876,0.3313,3.0766,0.3905
943.0,-6.1109,-11.8285,-0.7876,0.3313,3.0766,0.3905
948.0,-6.1109,-11.8285,-0.7876,0.3313,3.0766,0.3905
953.0,-6.1109,-11.8285,-0.7876,0.3313,3.0766,0.3905
958.0,-6.1109,-11.8285,-0.7876,2.0558,2.0631,0.9109
963.0,-6.1109,-11.8285,-0.7876,2.0558,2.0631,0.9109
968.0,-14.3436,-8.2677,-4.6168,2.0558,2.0631,0.9109
973.0,-14.3436,-8.2677,-4.6168,2.0558,2.0631,0.9109
978.0,-14.3436,-8.2677,-4.6168,2.0558,2.0631,0.9109
983.0,-14.3436,-8.2677,-4.6168,2.0558,2.0631,0.9109
988.0,-14.3436,-8.2677,-4.6168,1.9691,-0.4585,1.3172
993.0,-1.6043,-6.6517,0.1839,1.9691,-0.4585,1.3172
998.0,-1.6043,-6.6517,0.1839,1.9691,-0.4585,1.3172
1004.0,-1.6043,-6.6517,0.1839,1.9691,-0.4585,1.3172
1008.0,-1.6043,-6.6517,0.1839,1.9691,-0.4585,1.3172
1013.0,-1.6043,-6.6517,0.1839,1.9691,-0.4585,1.3172
1018.0,-1.6043,-6.6517,0.1839,1.9691,-0.4585,1.3172
1023.0,-10.7517,-10.1601,-0.8445,1.7449,0.4284,0.9207
1029.0,-10.7517,-10.1601,-0.8445,1.7449,0.4284,0.9207
1033.0,-10.7517,-10.1601,-0.8445,1.7449,0.4284,0.9207
1038.0,-10.7517,-10.1601,-0.8445,1.7449,0.4284,0.9207
1043.0,-10.7517,-10.1601,-0.8445,1.7449,0.4284,0.9207
1048.0,-6.1014,-16.3665,3.3069,1.7449,0.4284,0.9207
1053.0,-6.1014,-16.3665,3.3069,3.1975,-2.6674,1.0557
1058.0,-6.1014,-16.3665,3.3069,3.1975,-2.6674,1.0557
1063.0,-6.1014,-16.3665,3.3069,3.1975,-2.6674,1.0557
1068.0,-6.1014,-16.3665,3.3069,3.1975,-2.6674,1.0557
1074.0,1.1639,-6.0559,2.5676,3.1975,-2.6674,1.0557
1078.0,1.1639,-6.0559,2.5676,3.1975,-2.6674,1.0557
1084.0,1.1639,-6.0559,2.5676,4.5531,-2.8666,-1.0829
1088.0,1.1639,-6.0559,2.5676,4.5531,-2.8666,-1.0829
1093.0,1.1639,-6.0559,2.5676,4.5531,-2.8666,-1.0829
1098.0,1.1639,-6.0559,2.5676,4.5531,-2.8666,-1.0829
1103.0,4.3631,-0.9315,4.231,4.5531,-2.8666,-1.0829
1108.0,4.3631,-0.9315,4.231,4.5531,-2.8666,-1.0829
1113.0,4.3631,-0.9315,4.231,4.5018,-2.5117,-1.9552
1118.0,4.3631,-0.9315,4.231,4.5018,-2.5117,-1.9552
1124.0,4.3631,-0.9315,4.231,4.5018,-2.5117,-1.9552
1128.0,1.729,-2.538,3.0273,4.5018,-2.5117,-1.9552
1134.0,1.729,-2.538,3.0273,4.5018,-2.5117,-1.9552
1138.0,1.729,-2.538,3.0273,4.5018,-2.5117,-1.9552
1143.0,1.729,-2.538,3.0273,4.0076,1.1462,-2.3419
1149.0,1.729,-2.538,3.0273,4.0076,1.1462,-2.3419
1154.0,1.729,-2.538,3.0273,4.0076,1.1462,-2.3419
1158.0,3.2233,-0.7266,2.6719,4.0076,1.1462,-2.3419
1163.0,3.2233,-0.7266,2.6719,4.0076,1.1462,-2.3419
1168.0,3.2233,-0.7266,2.6719,4.0076,1.1462,-2.3419
1174.0,3.2233,-0.7266,2.6719,-0.0651,1.8731,0.1883
1178.0,3.2233,-0.7266,2.6719,-0.0651,1.8731,0.1883
1183.0,0.5605,-4.3732,4.1599,-0.0651,1.8731,0.1883
1188.0,0.5605,-4.3732,4.1599,-0.0651,1.8731,0.1883
1193.0,0.5605,-4.3732,4.1599,-0.0651,1.8731,0.1883
1198.0,0.5605,-4.3732,4.1599,-0.0651,1.8731,0.1883
1203.0,0.5605,-4.3732,4.1599,-0.0651,1.8731,0.1883
1209.0,-1.8198,-3.458,1.435,-2.4762,5.9782,0.4803
1214.0,-1.8198,-3.458,1.435,-2.4762,5.9782,0.4803
1218.0,-1.8198,-3.458,1.435,-2.4762,5.9782,0.4803
1225.0,-1.8198,-3.458,1.435,-2.4762,5.9782,0.4803
1229.0,-1.8198,-3.458,1.435,-2.4762,5.9782,0.4803
1234.0,-1.8198,-3.458,1.435,-2.4762,5.9782,0.4803
1239.0,-8.9366,-7.3381,-1.2379,-3.7242,3.8347,3.6281
1244.0,-8.9366,-7.3381,-1.2379,-3.7242,3.8347,3.6281
1248.0,-8.9366,-7.3381,-1.2379,-3.7242,3.8347,3.6281
1254.0,-8.9366,-7.3381,-1.2379,-3.7242,3.8347,3.6281
1258.0,-8.9366,-7.3381,-1.2379,-3.7242,3.8347,3.6281
1263.0,-14.9806,-9.1638,-11.1283,-3.7242,3.8347,3.6281
1268.0,-14.9806,-9.1638,-11.1283,-3.0345,1.6636,2.1266
1273.0,-14.9806,-9.1638,-11.1283,-3.0345,1.6636,2.1266
1278.0,-14.9806,-9.1638,-11.1283,-3.0345,1.6636,2.1266
1283.0,-14.9806,-9.1638,-11.1283,-3.0345,1.6636,2.1266
1288.0,-14.9806,-9.1638,-11.1283,-3.0345,1.6636,2.1266
1294.0,-17.6913,-7.7576,-6.1665,-3.0345,1.6636,2.1266
1299.0,-17.6913,-7.7576,-6.1665,-3.0345,1.6636,2.1266
1303.0,-17.6913,-7.7576,-6.1665,-2.0004,-2.0095,0.1718
1308.0,-17.6913,-7.7576,-6.1665,-2.0004,-2.0095,0.1718
1314.0,-17.6913,-7.7576,-6.1665,-2.0004,-2.0095,0.1718
1318.0,-10.8283,-8.2152,3.1647,-2.0004,-2.0095,0.1718
1323.0,-10.8283,-8.2152,3.1647,-2.0004,-2.0095,0.1718
1328.0,-10.8283,-8.2152,3.1647,-2.0004,-2.0095,0.1718
1333.0,-10.8283,-8.2152,3.1647,-2.34,0.8878,1.6006
1338.0,-10.8283,-8.2152,3.1647,-2.34,0.8878,1.6006
1344.0,-10.8283,-8.2152,3.1647,-2.34,0.8878,1.6006
1348.0,-8.8025,-14.4645,-5.0765,-2.34,0.8878,1.6006
1353.0,-8.8025,-14.4645,-5.0765,-2.34,0.8878,1.6006
1359.0,-8.8025,-14.4645,-5.0765,-2.34,0.8878,1.6006
1363.0,-8.8025,-14.4645,-5.0765,-1.5911,3.1596,0.7766
1369.0,-8.8025,-14.4645,-5.0765,-1.5911,3.1596,0.7766
1374.0,-15.4787,-8.0341,-6.612,-1.5911,3.1596,0.7766
1378.0,-15.4787,-8.0341,-6.612,-1.5911,3.1596,0.7766
1383.0,-15.4787,-8.0341,-6.612,-1.5911,3.1596,0.7766
1388.0,-15.4787,-8.0341,-6.612,-1.5911,3.1596,0.7766
1393.0,-15.4787,-8.0341,-6.612,0.9727,1.0955,-0.5057
1398.0,-15.4787,-8.0341,-6.612,0.9727,1.0955,-0.5057
1403.0,-22.7583,2.8104,-9.2848,0.9727,1.0955,-0.5057
1408.0,-22.7583,2.8104,-9.2848,0.9727,1.0955,-0.5057
1413.0,-22.7583,2.8104,-9.2848,0.9727,1.0955,-0.5057
1419.0,-22.7583,2.8104,-9.2848,0.9727,1.0955,-0.5057
1423.0,-22.7583,2.8104,-9.2848,1.5885,-4.1293,-3.0829
1428.0,-2.6723,-6.7614,-7.8678,1.5885,-4.1293,-3.0829
1433.0,-2.6723,-6.7614,-7.8678,1.5885,-4.1293,-3.0829
1439.0,-2.6723,-6.7614,-7.8678,1.5885,-4.1293,-3.0829
1443.0,-2.6723,-6.7614,-7.8678,1.5885,-4.1293,-3.0829
1449.0,-2.6723,-6.7614,-7.8678,1.5885,-4.1293,-3.0829
1453.0,5.1916,-10.8132,1.3354,1.5885,-4.1293,-3.0829
1458.0,5.1916,-10.8132,1.3354,0.288,-5.1012,-3.2979
1463.0,5.1916,-10.8132,1.3354,0.288,-5.1012,-3.2979
1469.0,5.1916,-10.8132,1.3354,0.288,-5.1012,-3.2979
1474.0,5.1916,-10.8132,1.3354,0.288,-5.1012,-3.2979
1479.0,6.1255,-4.3875,9.5388,0.288,-5.1012,-3.2979
1483.0,6.1255,-4.3875,9.5388,0.288,-5.1012,-3.2979
1488.0,6.1255,-4.3875,9.5388,-3.3895,2.3924,-1.9632
1494.0,6.1255,-4.3875,9.5388,-3.3895,2.3924,-1.9632
1498.0,6.1255,-4.3875,9.5388,-3.3895,2.3924,-1.9632
1503.0,6.1255,-4.3875,9.5388,-3.3895,2.3924,-1.9632
1508.0,-0.4357,-16.9718,-2.1383,-3.3895,2.3924,-1.9632
1513.0,-0.4357,-16.9718,-2.1383,-3.3895,2.3924,-1.9632
1518.0,-0.4357,-16.9718,-2.1383,-1.5245,0.1389,0.5487
1524.0,-0.4357,-16.9718,-2.1383,-1.5245,0.1389,0.5487
1529.0,-0.4357,-16.9718,-2.1383,-1.5245,0.1389,0.5487
1534.0,-7.5334,-7.1236,3.1126,-1.5245,0.1389,0.5487
1539.0,-7.5334,-7.1236,3.1126,-1.5245,0.1389,0.5487
1543.0,-7.5334,-7.1236,3.1126,-1.5245,0.1389,0.5487
1548.0,-7.5334,-7.1236,3.1126,-1.1696,2.641,0.958
1554.0,-7.5334,-7.1236,3.1126,-1.1696,2.641,0.958
1558.0,-7.5334,-7.1236,3.1126,-1.1696,2.641,0.958
1563.0,-8.927,-10.8275,-4.0292,-1.1696,2.641,0.958
1568.0,-8.927,-10.8275,-4.0292,-1.1696,2.641,0.958
1573.0,-8.927,-10.8275,-4.0292,-1.1696,2.641,0.958
1579.0,-8.927,-10.8275,-4.0292,0.6233,2.4987,0.523
1584.0,-8.927,-10.8275,-4.0292,0.6233,2.4987,0.523
1589.0,-8.8312,-9.917,-3.3515,0.6233,2.4987,0.523
1593.0,-8.8312,-9.917,-3.3515,0.6233,2.4987,0.523
1599.0,-8.8312,-9.917,-3.3515,0.6233,2.4987,0.523
1603.0,-8.8312,-9.917,-3.3515,0.6233,2.4987,0.523
1608.0,-8.8312,-9.917,-3.3515,0.6233,2.4987,0.523
1613.0,-8.8312,-9.917,-3.3515,1.7418,5.7913,0.206
1618.0,-9.5927,-9.2496,-2.1051,1.7418,5.7913,0.206
1624.0,-9.5927,-9.2496,-2.1051,1.7418,5.7913,0.206
1628.0,-9.5927,-9.2496,-2.1051,1.7418,5.7913,0.206
1634.0,-9.5927,-9.2496,-2.1051,1.7418,5.7913,0.206
1638.0,-9.5927,-9.2496,-2.1051,1.7418,5.7913,0.206
1643.0,-9.0707,-8.6919,-5.5504,1.1169,6.8737,-0.706
1649.0,-9.0707,-8.6919,-5.5504,1.1169,6.8737,-0.706
1655.0,-9.0707,-8.6919,-5.5504,1.1169,6.8737,-0.706
1659.0,-9.0707,-8.6919,-5.5504,1.1169,6.8737,-0.706
1663.0,-9.0707,-8.6919,-5.5504,1.1169,6.8737,-0.706
1668.0,-9.0707,-8.6919,-5.5504,1.1169,6.8737,-0.706
1673.0,-5.2201,-7.5526,-4.8348,1.1169,6.8737,-0.706
1678.0,-5.2201,-7.5526,-4.8348,0.4834,2.5756,-2.0597
1683.0,-5.2201,-7.5526,-4.8348,0.4834,2.5756,-2.0597
1689.0,-5.2201,-7.5526,-4.8348,0.4834,2.5756,-2.0597
1693.0,-5.2201,-7.5526,-4.8348,0.4834,2.5756,-2.0597
1698.0,-3.3954,-7.6956,-2.4558,0.4834,2.5756,-2.0597
1703.0,-3.3954,-7.6956,-2.4558,0.4834,2.5756,-2.0597
1708.0,-3.3954,-7.6956,-2.4558,0.4834,2.5756,-2.0597
1714.0,-3.3954,-7.6956,-2.4558,0.5073,-0.5972,-1.1458
1718.0,-3.3954,-7.6956,-2.4558,0.5073,-0.5972,-1.1458
1723.0,-4.6885,-10.8179,1.3118,0.5073,-0.5972,-1.1458
1728.0,-4.6885,-10.8179,1.3118,0.5073,-0.5972,-1.1458
1733.0,-4.6885,-10.8179,1.3118,0.5073,-0.5972,-1.1458
1739.0,-4.6885,-10.8179,1.3118,1.4004,-0.0682,0.443
1743.0,-4.6885,-10.8179,1.3118,1.4004,-0.0682,0.443
1748.0,-5.8428,-11.0324,2.8757,1.4004,-0.0682,0.443
1753.0,-5.8428,-11.0324,2.8757,1.4004,-0.0682,0.443
1759.0,-5.8428,-11.0324,2.8757,1.4004,-0.0682,0.443
1763.0,-5.8428,-11.0324,2.8757,1.4004,-0.0682,0.443
1768.0,-5.8428,-11.0324,2.8757,1.4004,-0.0682,0.443
1774.0,-7.4088,-11.0467,0.146,1.6099,-0.2392,2.8896
1778.0,-7.4088,-11.0467,0.146,1.6099,-0.2392,2.8896
1783.0,-7.4088,-11.0467,0.146,1.6099,-0.2392,2.8896
1788.0,-7.4088,-11.0467,0.146,1.6099,-0.2392,2.8896
1794.0,-7.4088,-11.0467,0.146,1.6099,-0.2392,2.8896
1798.0,-7.4088,-11.0467,0.146,1.6099,-0.2392,2.8896
1803.0,-21.0054,-14.1356,-15.0475,4.2342,-2.7695,-3.0536
1808.0,-21.0054,-14.1356,-15.0475,4.2342,-2.7695,-3.0536
1814.0,-21.0054,-14.1356,-15.0475,4.2342,-2.7695,-3.0536
1819.0,-21.0054,-14.1356,-15.0475,4.2342,-2.7695,-3.0536
1823.0,-21.0054,-14.1356,-15.0475,4.2342,-2.7695,-3.0536
1828.0,-21.0054,-14.1356,-15.0475,4.2342,-2.7695,-3.0536
1834.0,-9.7699,-10.5796,7.9938,4.7754,-0.1378,-1.3309
1838.0,-9.7699,-10.5796,7.9938,4.7754,-0.1378,-1.3309
1843.0,-9.7699,-10.5796,7.9938,4.7754,-0.1378,-1.3309
1849.0,-9.7699,-10.5796,7.9938,4.7754,-0.1378,-1.3309
1853.0,-9.7699,-10.5796,7.9938,4.7754,-0.1378,-1.3309
1859.0,-2.5286,-6.4182,0.7478,4.7754,-0.1378,-1.3309
1864.0,-2.5286,-6.4182,0.7478,4.7754,-0.1378,-1.3309
1868.0,-2.5286,-6.4182,0.7478,3.2385,3.2916,1.6489
1873.0,-2.5286,-6.4182,0.7478,3.2385,3.2916,1.6489
1878.0,-2.5286,-6.4182,0.7478,3.2385,3.2916,1.6489
1884.0,-1.3074,-7.4001,-2.3136,3.2385,3.2916,1.6489
1889.0,-1.3074,-7.4001,-2.3136,3.2385,3.2916,1.6489
1893.0,-1.3074,-7.4001,-2.3136,2.6374,1.8909,1.1999
1898.0,-1.3074,-7.4001,-2.3136,2.6374,1.8909,1.1999
1903.0,-1.3074,-7.4001,-2.3136,2.6374,1.8909,1.1999
1908.0,-1.3074,-7.4001,-2.3136,2.6374,1.8909,1.1999
1914.0,-1.0296,-5.174,-1.9345,2.6374,1.8909,1.1999
1919.0,-1.0296,-5.174,-1.9345,2.6374,1.8909,1.1999
1924.0,-1.0296,-5.174,-1.9345,2.6374,1.8909,1.1999
1928.0,-1.0296,-5.174,-1.9345,1.4633,1.6563,1.7961
1933.0,-1.0296,-5.174,-1.9345,1.4633,1.6563,1.7961
1938.0,-1.1876,-1.4178,-3.2235,1.4633,1.6563,1.7961
1944.0,-1.1876,-1.4178,-3.2235,1.4633,1.6563,1.7961
1948.0,-1.1876,-1.4178,-3.2235,1.4633,1.6563,1.7961
1953.0,-1.1876,-1.4178,-3.2235,1.4633,1.6563,1.7961
1958.0,-1.1876,-1.4178,-3.2235,0.2348,1.9202,3.429
1963.0,-1.1876,-1.4178,-3.2235,0.2348,1.9202,3.429
1969.0,-0.6943,1.0896,-6.029,0.2348,1.9202,3.429
1973.0,-0.6943,1.0896,-6.029,0.2348,1.9202,3.429
1978.0,-0.6943,1.0896,-6.029,0.2348,1.9202,3.429
1983.0,-0.6943,1.0896,-6.029,0.2348,1.9202,3.429
1988.0,-0.6943,1.0896,-6.029,-1.4408,0.919,3.5365
1993.0,-5.8092,0.7273,-11.8818,-1.4408,0.919,3.5365
1998.0,-5.8092,0.7273,-11.8818,-1.4408,0.919,3.5365
2003.0,-5.8092,0.7273,-11.8818,-1.4408,0.919,3.5365
2008.0,-5.8092,0.7273,-11.8818,-1.4408,0.919,3.5365
2014.0,-5.8092,0.7273,-11.8818,-1.4408,0.919,3.5365
2019.0,-15.1003,-2.1232,-8.9246,-1.4408,0.919,3.5365
2024.0,-15.1003,-2.1232,-8.9246,-0.9393,1.272,0.7888
2029.0,-15.1003,-2.1232,-8.9246,-0.9393,1.272,0.7888
2034.0,-15.1003,-2.1232,-8.9246,-0.9393,1.272,0.7888
2038.0,-15.1003,-2.1232,-8.9246,-0.9393,1.272,0.7888
2043.0,-15.1003,-2.1232,-8.9246,-0.9393,1.272,0.7888
2048.0,-13.8743,-4.0491,-1.7023,-0.9393,1.272,0.7888
2053.0,-13.8743,-4.0491,-1.7023,0.7193,0.0967,-0.8826
2059.0,-13.8743,-4.0491,-1.7023,0.7193,0.0967,-0.8826
2063.0,-13.8743,-4.0491,-1.7023,0.7193,0.0967,-0.8826
2068.0,-13.8743,-4.0491,-1.7023,0.7193,0.0967,-0.8826
2073.0,-3.6493,-2.3997,6.7048,0.7193,0.0967,-0.8826
2078.0,-3.6493,-2.3997,6.7048,0.7193,0.0967,-0.8826
2083.0,-3.6493,-2.3997,6.7048,0.7193,0.0967,-0.8826
2089.0,-3.6493,-2.3997,6.7048,-0.3137,-2.4487,1.0741
2094.0,-3.6493,-2.3997,6.7048,-0.3137,-2.4487,1.0741
2098.0,5.1916,-0.9458,1.2075,-0.3137,-2.4487,1.0741
2103.0,5.1916,-0.9458,1.2075,-0.3137,-2.4487,1.0741
2108.0,5.1916,-0.9458,1.2075,-0.3137,-2.4487,1.0741
2113.0,5.1916,-0.9458,1.2075,-0.3137,-2.4487,1.0741
2118.0,5.1916,-0.9458,1.2075,-4.0303,2.3362,-2.1183
2124.0,5.1916,-0.9458,1.2075,-4.0303,2.3362,-2.1183
2129.0,-5.9146,-13.311,-0.6644,-4.0303,2.3362,-2.1183
2133.0,-5.9146,-13.311,-0.6644,-4.0303,2.3362,-2.1183
2138.0,-5.9146,-13.311,-0.6644,-4.0303,2.3362,-2.1183
2143.0,-5.9146,-13.311,-0.6644,-4.0303,2.3362,-2.1183
2149.0,-5.9146,-13.311,-0.6644,-1.2679,-1.7359,0.1602
2153.0,-3.7355,-12.7294,-12.2988,-1.2679,-1.7359,0.1602
2158.0,-3.7355,-12.7294,-12.2988,-1.2679,-1.7359,0.1602
2163.0,-3.7355,-12.7294,-12.2988,-1.2679,-1.7359,0.1602
2168.0,-3.7355,-12.7294,-12.2988,-1.2679,-1.7359,0.1602
2173.0,-3.7355,-12.7294,-12.2988,-1.2679,-1.7359,0.1602
2178.0,0.7568,-7.1379,3.8945,-1.2679,-1.7359,0.1602
2184.0,0.7568,-7.1379,3.8945,-2.4133,-2.6009,2.2897
2189.0,0.7568,-7.1379,3.8945,-2.4133,-2.6009,2.2897
2193.0,0.7568,-7.1379,3.8945,-2.4133,-2.6009,2.2897
2198.0,0.7568,-7.1379,3.8945,-2.4133,-2.6009,2.2897
2204.0,0.7568,-7.1379,3.8945,-2.4133,-2.6009,2.2897
2208.0,-1.4845,-11.2612,-0.9819,-2.4133,-2.6009,2.2897
2214.0,-1.4845,-11.2612,-0.9819,-4.2007,-2.7304,2.0557
2218.0,-1.4845,-11.2612,-0.9819,-4.2007,-2.7304,2.0557
2223.0,-1.4845,-11.2612,-0.9819,-4.2007,-2.7304,2.0557
2228.0,-1.4845,-11.2612,-0.9819,-4.2007,-2.7304,2.0557
2233.0,-2.2556,-13.4254,0.0844,-4.2007,-2.7304,2.0557
2238.0,-2.2556,-13.4254,0.0844,-4.2007,-2.7304,2.0557
2243.0,-2.2556,-13.4254,0.0844,-3.7608,-2.9949,0.1877
2249.0,-2.2556,-13.4254,0.0844,-3.7608,-2.9949,0.1877
2254.0,-2.2556,-13.4254,0.0844,-3.7608,-2.9949,0.1877
2258.0,-1.9826,-13.4397,0.7383,-3.7608,-2.9949,0.1877
2263.0,-1.9826,-13.4397,0.7383,-3.7608,-2.9949,0.1877
2269.0,-1.9826,-13.4397,0.7383,-3.7608,-2.9949,0.1877
2273.0,-1.9826,-13.4397,0.7383,-3.2251,-3.7554,0.1315
2278.0,-1.9826,-13.4397,0.7383,-3.2251,-3.7554,0.1315
2283.0,-1.9826,-13.4397,0.7383,-3.2251,-3.7554,0.1315
2288.0,-7.9835,-18.3447,6.937,-3.2251,-3.7554,0.1315
2293.0,-7.9835,-18.3447,6.937,-3.2251,-3.7554,0.1315
2299.0,-7.9835,-18.3447,6.937,-3.2251,-3.7554,0.1315
2303.0,-7.9835,-18.3447,6.937,-3.2251,-3.7554,0.1315
2308.0,-7.9835,-18.3447,6.937,0.2898,-0.483,1.2036
2313.0,-19.2047,-24.7036,3.0605,0.2898,-0.483,1.2036
2318.0,-19.2047,-24.7036,3.0605,0.2898,-0.483,1.2036
2323.0,-19.2047,-24.7036,3.0605,0.2898,-0.483,1.2036
2329.0,-19.2047,-24.7036,3.0605,0.2898,-0.483,1.2036
2333.0,-19.2047,-24.7036,3.0605,0.2898,-0.483,1.2036
2338.0,-19.2047,-24.7036,3.0605,3.9886,2.9037,0.5853
2344.0,-21.2976,-5.4743,-1.7923,3.9886,2.9037,0.5853
2348.0,-21.2976,-5.4743,-1.7923,3.9886,2.9037,0.5853
2353.0,-21.2976,-5.4743,-1.7923,3.9886,2.9037,0.5853
2358.0,-21.2976,-5.4743,-1.7923,3.9886,2.9037,0.5853
2363.0,-21.2976,-5.4743,-1.7923,3.9886,2.9037,0.5853
2368.0,-21.2305,-4.1873,4.5201,-4.3143,-2.8189,1.6354
2373.0,-21.2305,-4.1873,4.5201,-4.3143,-2.8189,1.6354
2378.0,-21.2305,-4.1873,4.5201,-4.3143,-2.8189,1.6354
2383.0,-21.2305,-4.1873,4.5201,-4.3143,-2.8189,1.6354
2388.0,-21.2305,-4.1873,4.5201,-4.3143,-2.8189,1.6354
2394.0,-10.0285,-2.3187,-7.8725,-4.3143,-2.8189,1.6354
2398.0,-10.0285,-2.3187,-7.8725,-1.781,-2.0291,4.917
2404.0,-10.0285,-2.3187,-7.8725,-1.781,-2.0291,4.917
2409.0,-10.0285,-2.3187,-7.8725,-1.781,-2.0291,4.917
2413.0,-10.0285,-2.3187,-7.8725,-1.781,-2.0291,4.917
2419.0,-10.0285,-2.3187,-7.8725,-1.781,-2.0291,4.917
2424.0,-6.2163,-2.8288,-0.8587,-1.781,-2.0291,4.917
2429.0,-6.2163,-2.8288,-0.8587,0.1542,5.1199,4.0423
2434.0,-6.2163,-2.8288,-0.8587,0.1542,5.1199,4.0423
2439.0,-6.2163,-2.8288,-0.8587,0.1542,5.1199,4.0423
2443.0,-6.2163,-2.8288,-0.8587,0.1542,5.1199,4.0423
2448.0,-0.3543,-0.8934,-10.498,0.1542,5.1199,4.0423
2453.0,-0.3543,-0.8934,-10.498,0.1542,5.1199,4.0423
2458.0,-0.3543,-0.8934,-10.498,0.6447,3.6105,0.4723
2463.0,-0.3543,-0.8934,-10.498,0.6447,3.6105,0.4723
2468.0,-0.3543,-0.8934,-10.498,0.6447,3.6105,0.4723
2473.0,-0.3543,-0.8934,-10.498,0.6447,3.6105,0.4723
2479.0,-0.8524,-3.9299,-9.9862,0.6447,3.6105,0.4723
2484.0,-0.8524,-3.9299,-9.9862,0.6447,3.6105,0.4723
2488.0,-0.8524,-3.9299,-9.9862,0.6447,3.6105,0.4723
2493.0,-0.8524,-3.9299,-9.9862,0.5525,-0.2545,-3.6229
2499.0,-0.8524,-3.9299,-9.9862,0.5525,-0.2545,-3.6229
2503.0,-1.5899,-7.1379,2.9941,0.5525,-0.2545,-3.6229
2508.0,-1.5899,-7.1379,2.9941,0.5525,-0.2545,-3.6229
2513.0,-1.5899,-7.1379,2.9941,0.5525,-0.2545,-3.6229
2518.0,-1.5899,-7.1379,2.9941,0.5525,-0.2545,-3.6229
2524.0,-1.5899,-7.1379,2.9941,1.1457,0.6929,-2.8777
2528.0,-2.5526,-8.158,5.6385,1.1457,0.6929,-2.8777
2533.0,-2.5526,-8.158,5.6385,1.1457,0.6929,-2.8777
2539.0,-2.5526,-8.158,5.6385,1.1457,0.6929,-2.8777
2543.0,-2.5526,-8.158,5.6385,1.1457,0.6929,-2.8777
2548.0,-2.5526,-8.158,5.6385,1.1457,0.6929,-2.8777
2553.0,-10.5601,-15.8326,12.368,2.963,3.0411,-1.2375
2558.0,-10.5601,-15.8326,12.368,2.963,3.0411,-1.2375
2563.0,-10.5601,-15.8326,12.368,2.963,3.0411,-1.2375
2568.0,-10.5601,-15.8326,12.368,2.963,3.0411,-1.2375
2573.0,-10.5601,-15.8326,12.368,2.963,3.0411,-1.2375
2578.0,-10.5601,-15.8326,12.368,2.963,3.0411,-1.2375
2583.0,-22.332,-21.0427,-2.2899,5.8634,5.429,-0.6883
2588.0,-22.332,-21.0427,-2.2899,5.8634,5.429,-0.6883
2593.0,-22.332,-21.0427,-2.2899,5.8634,5.429,-0.6883
2598.0,-22.332,-21.0427,-2.2899,5.8634,5.429,-0.6883
2603.0,-22.332,-21.0427,-2.2899,5.8634,5.429,-0.6883
2608.0,-17.2172,-18.9882,0.3876,5.8634,5.429,-0.6883
2613.0,-17.2172,-18.9882,0.3876,4.9453,0.845,-7.1507
2619.0,-17.2172,-18.9882,0.3876,4.9453,0.845,-7.1507
2623.0,-17.2172,-18.9882,0.3876,4.9453,0.845,-7.1507
2628.0,-17.2172,-18.9882,0.3876,4.9453,0.845,-7.1507
2634.0,-16.5371,-20.0417,-5.4983,4.9453,0.845,-7.1507
2639.0,-16.5371,-20.0417,-5.4983,4.9453,0.845,-7.1507
2643.0,-16.5371,-20.0417,-5.4983,2.7767,-0.6638,-1.4953
2648.0,-16.5371,-20.0417,-5.4983,2.7767,-0.6638,-1.4953
2653.0,-16.5371,-20.0417,-5.4983,2.7767,-0.6638,-1.4953
2659.0,-16.3503,-8.9064,0.0654,2.7767,-0.6638,-1.4953
2664.0,-16.3503,-8.9064,0.0654,2.7767,-0.6638,-1.4953
2668.0,-16.3503,-8.9064,0.0654,2.7767,-0.6638,-1.4953
2673.0,-16.3503,-8.9064,0.0654,2.547,3.6489,2.0808
2678.0,-16.3503,-8.9064,0.0654,2.547,3.6489,2.0808
2683.0,-16.3503,-8.9064,0.0654,2.547,3.6489,2.0808
2688.0,-13.3714,-3.3197,-2.2615,2.547,3.6489,2.0808
2693.0,-13.3714,-3.3197,-2.2615,2.547,3.6489,2.0808
2699.0,-13.3714,-3.3197,-2.2615,2.547,3.6489,2.0808
2703.0,-13.3714,-3.3197,-2.2615,2.547,3.6489,2.0808
2708.0,-13.3714,-3.3197,-2.2615,-0.321,2.3777,2.6953
2714.0,-7.4902,-3.7487,1.1459,-0.321,2.3777,2.6953
2718.0,-7.4902,-3.7487,1.1459,-0.321,2.3777,2.6953
2723.0,-7.4902,-3.7487,1.1459,-0.321,2.3777,2.6953
2728.0,-7.4902,-3.7487,1.1459,-0.321,2.3777,2.6953
2733.0,-7.4902,-3.7487,1.1459,-0.321,2.3777,2.6953
2739.0,-0.0191,-2.4951,2.307,-3.0168,-0.6711,3.0325
2744.0,-0.0191,-2.4951,2.307,-3.0168,-0.6711,3.0325
2749.0,-0.0191,-2.4951,2.307,-3.0168,-0.6711,3.0325
2754.0,-0.0191,-2.4951,2.307,-3.0168,-0.6711,3.0325
2759.0,-0.0191,-2.4951,2.307,-3.0168,-0.6711,3.0325
2763.0,-0.0191,-2.4951,2.307,-3.0168,-0.6711,3.0325
2768.0,2.8305,0.0027,1.4682,-4.767,-4.5563,2.746
2773.0,2.8305,0.0027,1.4682,-4.767,-4.5563,2.746
2779.0,2.8305,0.0027,1.4682,-4.767,-4.5563,2.746
2783.0,2.8305,0.0027,1.4682,-4.767,-4.5563,2.746
2790.0,2.8305,0.0027,1.4682,-4.767,-4.5563,2.746
2794.0,7.1217,2.696,5.122,-4.767,-4.5563,2.746
2799.0,7.1217,2.696,5.122,-5.7498,-6.0956,1.4534
2803.0,7.1217,2.696,5.122,-5.7498,-6.0956,1.4534
2808.0,7.1217,2.696,5.122,-5.7498,-6.0956,1.4534
2813.0,7.1217,2.696,5.122,-5.7498,-6.0956,1.4534
2818.0,11.6044,2.2908,3.1316,-5.7498,-6.0956,1.4534
2823.0,11.6044,2.2908,3.1316,-5.7498,-6.0956,1.4534
2828.0,11.6044,2.2908,3.1316,-5.7498,-6.0956,1.4534
2833.0,11.6044,2.2908,3.1316,-5.0736,-4.1848,-1.1495
2839.0,11.6044,2.2908,3.1316,-5.0736,-4.1848,-1.1495
2844.0,4.5211,-1.208,2.705,-5.0736,-4.1848,-1.1495
2848.0,4.5211,-1.208,2.705,-5.0736,-4.1848,-1.1495
2853.0,4.5211,-1.208,2.705,-5.0736,-4.1848,-1.1495
2858.0,4.5211,-1.208,2.705,-5.0736,-4.1848,-1.1495
2863.0,4.5211,-1.208,2.705,-1.5819,11.0466,-4.8153
2868.0,4.5211,-1.208,2.705,-1.5819,11.0466,-4.8153
2873.0,5.9148,0.8989,-2.0909,-1.5819,11.0466,-4.8153
2878.0,5.9148,0.8989,-2.0909,-1.5819,11.0466,-4.8153
2883.0,5.9148,0.8989,-2.0909,-1.5819,11.0466,-4.8153
2888.0,5.9148,0.8989,-2.0909,-1.5819,11.0466,-4.8153
2894.0,5.9148,0.8989,-2.0909,-0.5122,10.6691,-3.0255
2898.0,2.3899,0.8655,-9.389,-0.5122,10.6691,-3.0255
2904.0,2.3899,0.8655,-9.389,-0.5122,10.6691,-3.0255
2908.0,2.3899,0.8655,-9.389,-0.5122,10.6691,-3.0255
2913.0,2.3899,0.8655,-9.389,-0.5122,10.6691,-3.0255
2919.0,2.3899,0.8655,-9.389,-0.5122,10.6691,-3.0255
2923.0,2.3899,0.8655,-9.389,-0.5122,10.6691,-3.0255
2929.0,1.547,-1.8373,-3.6358,-0.1194,-0.9466,0.126
2933.0,1.547,-1.8373,-3.6358,-0.1194,-0.9466,0.126
2939.0,1.547,-1.8373,-3.6358,-0.1194,-0.9466,0.126
2943.0,1.547,-1.8373,-3.6358,-0.1194,-0.9466,0.126
2948.0,1.547,-1.8373,-3.6358,-0.1194,-0.9466,0.126
2953.0,5.0767,-4.0491,2.0463,-0.1194,-0.9466,0.126
2958.0,5.0767,-4.0491,2.0463,-1.0009,-5.2648,1.9048
2963.0,5.0767,-4.0491,2.0463,-1.0009,-5.2648,1.9048
2969.0,5.0767,-4.0491,2.0463,-1.0009,-5.2648,1.9048
2973.0,5.0767,-4.0491,2.0463,-1.0009,-5.2648,1.9048
2979.0,5.8477,-9.836,7.0981,-1.0009,-5.2648,1.9048
2983.0,5.8477,-9.836,7.0981,-1.0009,-5.2648,1.9048
2988.0,5.8477,-9.836,7.0981,-2.6955,-5.9814,4.6971
2994.0,5.8477,-9.836,7.0981,-2.6955,-5.9814,4.6971
2999.0,5.8477,-9.836,7.0981,-2.6955,-5.9814,4.6971
3003.0,5.8477,-9.836,7.0981,-2.6955,-5.9814,4.6971
3009.0,5.8477,-9.836,7.0981,-2.6955,-5.9814,4.6971
3013.0,5.8477,-9.836,7.0981,-2.6955,-5.9814,4.6971
3018.0,5.8477,-9.836,7.0981,-2.6955,-5.9814,4.6971
3023.0,5.8477,-9.836,7.0981,-2.6955,-5.9814,4.6971
3028.0,5.8477,-9.836,7.0981,-2.6955,-5.9814,4.6971
3033.0,0.8526,-26.3053,19.178,-2.4939,-4.3229,7.0752
3039.0,0.8526,-26.3053,19.178,-2.4939,-4.3229,7.0752
3043.0,0.8526,-26.3053,19.178,-2.4939,-4.3229,7.0752
3048.0,0.8526,-26.3053,19.178,-2.4939,-4.3229,7.0752
3053.0,0.8526,-26.3053,19.178,-2.4939,-4.3229,7.0752
3058.0,-17.7966,-39.7763,8.4251,-2.4939,-4.3229,7.0752
3063.0,-17.7966,-39.7763,8.4251,5.1799,5.0191,-0.5564
3069.0,-17.7966,-39.7763,8.4251,5.1799,5.0191,-0.5564
3074.0,-17.7966,-39.7763,8.4251,5.1799,5.0191,-0.5564
3078.0,-17.7966,-39.7763,8.4251,5.1799,5.0191,-0.5564
3084.0,-15.3972,-12.8486,-29.5016,5.1799,5.0191,-0.5564
3088.0,-15.3972,-12.8486,-29.5016,5.1799,5.0191,-0.5564
3093.0,-15.3972,-12.8486,-29.5016,4.0558,-13.3094,-2.2656
3098.0,-15.3972,-12.8486,-29.5016,4.0558,-13.3094,-2.2656
3103.0,-15.3972,-12.8486,-29.5016,4.0558,-13.3094,-2.2656
3109.0,-15.3972,-12.8486,-29.5016,4.0558,-13.3094,-2.2656
3113.0,-12.0735,-2.4951,12.6334,4.0558,-13.3094,-2.2656
3119.0,-12.0735,-2.4951,12.6334,4.0558,-13.3094,-2.2656
3123.0,-12.0735,-2.4951,12.6334,1.8078,-6.6552,-0.9846
3128.0,-12.0735,-2.4951,12.6334,1.8078,-6.6552,-0.9846
3134.0,-12.0735,-2.4951,12.6334,1.8078,-6.6552,-0.9846
3138.0,-8.3763,8.9691,-2.8017,1.8078,-6.6552,-0.9846
3143.0,-8.3763,8.9691,-2.8017,1.8078,-6.6552,-0.9846
3148.0,-8.3763,8.9691,-2.8017,1.8078,-6.6552,-0.9846
3154.0,-8.3763,8.9691,-2.8017,-2.073,3.2946,3.7484
3158.0,-8.3763,8.9691,-2.8017,-2.073,3.2946,3.7484
3163.0,-8.3763,8.9691,-2.8017,-2.073,3.2946,3.7484
3168.0,-7.428,-1.3272,-1.1478,-2.073,3.2946,3.7484
3174.0,-7.428,-1.3272,-1.1478,-2.073,3.2946,3.7484
3178.0,-7.428,-1.3272,-1.1478,-2.073,3.2946,3.7484
3183.0,-7.428,-1.3272,-1.1478,-2.073,3.2946,3.7484
3189.0,-7.428,-1.3272,-1.1478,0.3754,4.6899,2.5334
3193.0,-2.5573,1.2326,-7.7067,0.3754,4.6899,2.5334
3198.0,-2.5573,1.2326,-7.7067,0.3754,4.6899,2.5334
3203.0,-2.5573,1.2326,-7.7067,0.3754,4.6899,2.5334
3208.0,-2.5573,1.2326,-7.7067,0.3754,4.6899,2.5334
3213.0,-2.5573,1.2326,-7.7067,0.3754,4.6899,2.5334
3219.0,0.0336,0.0409,-2.1241,0.9233,2.4743,-0.9235
3223.0,0.0336,0.0409,-2.1241,0.9233,2.4743,-0.9235
3228.0,0.0336,0.0409,-2.1241,0.9233,2.4743,-0.9235
3233.0,0.0336,0.0409,-2.1241,0.9233,2.4743,-0.9235
3238.0,0.0336,0.0409,-2.1241,0.9233,2.4743,-0.9235
3243.0,0.0336,0.0409,-2.1241,0.9233,2.4743,-0.9235
3248.0,1.7386,-0.5836,-1.7354,0.4389,1.5311,-3.279
3254.0,1.7386,-0.5836,-1.7354,0.4389,1.5311,-3.279
3258.0,1.7386,-0.5836,-1.7354,0.4389,1.5311,-3.279
3263.0,1.7386,-0.5836,-1.7354,0.4389,1.5311,-3.279
3268.0,1.7386,-0.5836,-1.7354,0.4389,1.5311,-3.279
3273.0,-0.2537,-1.5465,3.7571,0.4389,1.5311,-3.279
3278.0,-0.2537,-1.5465,3.7571,0.4725,3.5744,-3.4464
3283.0,-0.2537,-1.5465,3.7571,0.4725,3.5744,-3.4464
3289.0,-0.2537,-1.5465,3.7571,0.4725,3.5744,-3.4464
3293.0,-0.2537,-1.5465,3.7571,0.4725,3.5744,-3.4464
3298.0,-0.2537,-1.5465,3.7571,0.4725,3.5744,-3.4464
3303.0,-2.2796,-3.7964,1.2786,0.4725,3.5744,-3.4464
3309.0,-2.2796,-3.7964,1.2786,1.4987,4.2476,-3.1978
3313.0,-2.2796,-3.7964,1.2786,1.4987,4.2476,-3.1978
3318.0,-2.2796,-3.7964,1.2786,1.4987,4.2476,-3.1978
3323.0,-2.2796,-3.7964,1.2786,1.4987,4.2476,-3.1978
3328.0,-23.1414,-21.4669,-8.2943,1.4987,4.2476,-3.1978
3333.0,-23.1414,-21.4669,-8.2943,1.4987,4.2476,-3.1978
3338.0,-23.1414,-21.4669,-8.2943,1.4987,4.2476,-3.1978
3343.0,-23.1414,-21.4669,-8.2943,8.379,1.5176,-6.0536
3348.0,-23.1414,-21.4669,-8.2943,8.379,1.5176,-6.0536
3353.0,-23.1414,-21.4669,-8.2943,8.379,1.5176,-6.0536
3358.0,-36.7093,-27.9641,-8.4933,8.379,1.5176,-6.0536
3363.0,-36.7093,-27.9641,-8.4933,8.379,1.5176,-6.0536
3368.0,-36.7093,-27.9641,-8.4933,5.7443,-3.3376,-5.6797
3373.0,-36.7093,-27.9641,-8.4933,5.7443,-3.3376,-5.6797
3379.0,-36.7093,-27.9641,-8.4933,5.7443,-3.3376,-5.6797
3384.0,-31.5369,-25.1898,1.6672,5.7443,-3.3376,-5.6797
3389.0,-31.5369,-25.1898,1.6672,5.7443,-3.3376,-5.6797
3394.0,-31.5369,-25.1898,1.6672,5.7443,-3.3376,-5.6797
3398.0,-31.5369,-25.1898,1.6672,5.7443,-3.3376,-5.6797
3403.0,-31.5369,-25.1898,1.6672,3.4376,5.0857,1.6794
3408.0,-15.7133,-10.8227,-7.7114,3.4376,5.0857,1.6794
3414.0,-15.7133,-10.8227,-7.7114,3.4376,5.0857,1.6794
3418.0,-15.7133,-10.8227,-7.7114,3.4376,5.0857,1.6794
3423.0,-15.7133,-10.8227,-7.7114,3.4376,5.0857,1.6794
3428.0,-15.7133,-10.8227,-7.7114,3.4376,5.0857,1.6794
3433.0,-9.1808,-3.968,-0.9772,1.5055,4.6251,2.8639
3438.0,-9.1808,-3.968,-0.9772,1.5055,4.6251,2.8639
3443.0,-9.1808,-3.968,-0.9772,1.5055,4.6251,2.8639
3448.0,-9.1808,-3.968,-0.9772,1.5055,4.6251,2.8639
3453.0,-9.1808,-3.968,-0.9772,1.5055,4.6251,2.8639
3458.0,-9.1808,-3.968,-0.9772,1.5055,4.6251,2.8639
3463.0,-3.4721,-2.7906,3.6339,-1.2508,3.17,3.5096
3469.0,-3.4721,-2.7906,3.6339,-1.2508,3.17,3.5096
3473.0,-3.4721,-2.7906,3.6339,-1.2508,3.17,3.5096
3478.0,-3.4721,-2.7906,3.6339,-1.2508,3.17,3.5096
3483.0,-3.4721,-2.7906,3.6339,-1.2508,3.17,3.5096
3488.0,1.3842,-1.7228,1.127,-1.2508,3.17,3.5096
3493.0,1.3842,-1.7228,1.127,-1.2508,3.17,3.5096
3498.0,1.3842,-1.7228,1.127,-3.8427,-2.1946,3.5169
3503.0,1.3842,-1.7228,1.127,-3.8427,-2.1946,3.5169
3508.0,1.3842,-1.7228,1.127,-3.8427,-2.1946,3.5169
3513.0,1.3842,-1.7228,1.127,-3.8427,-2.1946,3.5169
3518.0,5.1725,3.6589,9.2734,-3.8427,-2.1946,3.5169
3523.0,5.1725,3.6589,9.2734,-3.8427,-2.1946,3.5169
3528.0,5.1725,3.6589,9.2734,-5.6545,-6.676,3.8193
3533.0,5.1725,3.6589,9.2734,-5.6545,-6.676,3.8193
3538.0,5.1725,3.6589,9.2734,-5.6545,-6.676,3.8193
3543.0,11.1207,4.3501,7.0934,-5.6545,-6.676,3.8193
3548.0,11.1207,4.3501,7.0934,-5.6545,-6.676,3.8193
3554.0,11.1207,4.3501,7.0934,-5.6545,-6.676,3.8193
3558.0,11.1207,4.3501,7.0934,-7.233,-8.767,1.6189
3564.0,11.1207,4.3501,7.0934,-7.233,-8.767,1.6189
3568.0,11.1207,4.3501,7.0934,-7.233,-8.767,1.6189
3574.0,10.7088,-0.0783,2.5202,-7.233,-8.767,1.6189
3578.0,10.7088,-0.0783,2.5202,-7.233,-8.767,1.6189
3583.0,10.7088,-0.0783,2.5202,-7.233,-8.767,1.6189
3589.0,10.7088,-0.0783,2.5202,-3.7083,-0.9888,-1.717
3594.0,10.7088,-0.0783,2.5202,-3.7083,-0.9888,-1.717
3598.0,1.5087,-2.333,11.4723,-3.7083,-0.9888,-1.717
3603.0,1.5087,-2.333,11.4723,-3.7083,-0.9888,-1.717
3609.0,1.5087,-2.333,11.4723,-3.7083,-0.9888,-1.717
3613.0,1.5087,-2.333,11.4723,-3.7083,-0.9888,-1.717
3618.0,1.5087,-2.333,11.4723,-0.1793,19.7087,-0.546
3623.0,10.9387,-1.4273,-9.2184,-0.1793,19.7087,-0.546
3629.0,10.9387,-1.4273,-9.2184,-0.1793,19.7087,-0.546
3634.0,10.9387,-1.4273,-9.2184,-0.1793,19.7087,-0.546
3639.0,10.9387,-1.4273,-9.2184,-0.1793,19.7087,-0.546
3643.0,10.9387,-1.4273,-9.2184,-0.1793,19.7087,-0.546
3648.0,10.9387,-1.4273,-9.2184,0.4352,8.148,-2.7005
3654.0,0.1294,-3.0575,-28.985,0.4352,8.148,-2.7005
3659.0,0.1294,-3.0575,-28.985,0.4352,8.148,-2.7005
3663.0,0.1294,-3.0575,-28.985,0.4352,8.148,-2.7005
3668.0,0.1294,-3.0575,-28.985,0.4352,8.148,-2.7005
3673.0,0.1294,-3.0575,-28.985,0.4352,8.148,-2.7005
3678.0,3.98,-3.2673,-3.124,0.4352,8.148,-2.7005
3683.0,3.98,-3.2673,-3.124,0.6454,-9.4304,-1.5411
3688.0,3.98,-3.2673,-3.124,0.6454,-9.4304,-1.5411
3693.0,3.98,-3.2673,-3.124,0.6454,-9.4304,-1.5411
3698.0,3.98,-3.2673,-3.124,0.6454,-9.4304,-1.5411
3704.0,3.98,-3.2673,-3.124,0.6454,-9.4304,-1.5411
3708.0,8.8937,-4.2254,3.1363,0.6454,-9.4304,-1.5411
3713.0,8.8937,-4.2254,3.1363,-0.7413,-10.9569,-0.1226
3718.0,8.8937,-4.2254,3.1363,-0.7413,-10.9569,-0.1226
3723.0,8.8937,-4.2254,3.1363,-0.7413,-10.9569,-0.1226
3729.0,8.8937,-4.2254,3.1363,-0.7413,-10.9569,-0.1226
3734.0,7.2654,-5.3695,14.2209,-0.7413,-10.9569,-0.1226
3738.0,7.2654,-5.3695,14.2209,-0.7413,-10.9569,-0.1226
3744.0,7.2654,-5.3695,14.2209,-3.4065,-5.519,3.7106
3748.0,7.2654,-5.3695,14.2209,-3.4065,-5.519,3.7106
3753.0,7.2654,-5.3695,14.2209,-3.4065,-5.519,3.7106
3758.0,7.2654,-5.3695,14.2209,-3.4065,-5.519,3.7106
3763.0,4.8324,-13.3396,18.2491,-3.4065,-5.519,3.7106
3769.0,4.8324,-13.3396,18.2491,-3.4065,-5.519,3.7106
3773.0,4.8324,-13.3396,18.2491,-3.6307,2.2562,6.6153
3778.0,4.8324,-13.3396,18.2491,-3.6307,2.2562,6.6153
3783.0,4.8324,-13.3396,18.2491,-3.6307,2.2562,6.6153
3788.0,-10.426,-49.1049,27.841,-3.6307,2.2562,6.6153
3793.0,-10.426,-49.1049,27.841,-3.6307,2.2562,6.6153
3798.0,-10.426,-49.1049,27.841,-3.6307,2.2562,6.6153
3803.0,-10.426,-49.1049,27.841,-3.6307,2.2562,6.6153
3808.0,-10.426,-49.1049,27.841,-0.1115,10.5952,4.804
3813.0,-25.3157,-53.4999,9.752,-0.1115,10.5952,4.804
3819.0,-25.3157,-53.4999,9.752,-0.1115,10.5952,4.804
3823.0,-25.3157,-53.4999,9.752,-0.1115,10.5952,4.804
3829.0,-25.3157,-53.4999,9.752,-0.1115,10.5952,4.804
3833.0,-25.3157,-53.4999,9.752,-0.1115,10.5952,4.804
3839.0,-25.3157,-26.4197,-22.1845,0.4401,-18.5427,3.2451
3843.0,-16.3072,-26.4197,-22.1845,0.4401,-18.5427,3.2451
3848.0,-16.3072,-26.4197,-22.1845,0.4401,-18.5427,3.2451
3854.0,-16.3072,-26.4197,-22.1845,0.4401,-18.5427,3.2451
3858.0,-16.3072,-26.4197,-22.1845,0.4401,-18.5427,3.2451
3863.0,-16.3072,-26.4197,-22.1845,0.4401,-18.5427,3.2451
3869.0,-9.5831,-6.6613,-3.1429,4.28,-4.6289,-4.2362
3873.0,-9.5831,-6.6613,-3.1429,4.28,-4.6289,-4.2362
3878.0,-9.5831,-6.6613,-3.1429,4.28,-4.6289,-4.2362
3883.0,-9.5831,-6.6613,-3.1429,4.28,-4.6289,-4.2362
3888.0,-9.5831,-6.6613,-3.1429,4.28,-4.6289,-4.2362
3894.0,-9.5831,-6.6613,-3.1429,4.28,-4.6289,-4.2362
3898.0,-0.68,1.3803,-4.1713,4.28,-4.6289,-4.2362
3903.0,-0.68,1.3803,-4.1713,1.9819,4.9684,3.2872
3908.0,-0.68,1.3803,-4.1713,1.9819,4.9684,3.2872
3913.0,-0.68,1.3803,-4.1713,1.9819,4.9684,3.2872
3918.0,-0.68,1.3803,-4.1713,1.9819,4.9684,3.2872
3923.0,-2.5669,0.8989,-7.4081,1.9819,4.9684,3.2872
3928.0,-2.5669,0.8989,-7.4081,1.9819,4.9684,3.2872
3933.0,-2.5669,0.8989,-7.4081,1.1945,3.6832,1.6721
3938.0,-2.5669,0.8989,-7.4081,1.1945,3.6832,1.6721
3943.0,-2.5669,0.8989,-7.4081,1.1945,3.6832,1.6721
3948.0,-1.5612,1.8046,-4.5315,1.1945,3.6832,1.6721
3953.0,-1.5612,1.8046,-4.5315,1.1945,3.6832,1.6721
3959.0,-1.5612,1.8046,-4.5315,1.1945,3.6832,1.6721
3963.0,-1.5612,1.8046,-4.5315,0.2819,1.4333,-2.8306
3968.0,-1.5612,1.8046,-4.5315,0.2819,1.4333,-2.8306
3973.0,-1.5612,1.8046,-4.5315,0.2819,1.4333,-2.8306
3979.0,-0.383,1.2612,-0.0863,0.2819,1.4333,-2.8306
3983.0,-0.383,1.2612,-0.0863,0.2819,1.4333,-2.8306
3988.0,-0.383,1.2612,-0.0863,0.2819,1.4333,-2.8306
3994.0,-0.383,1.2612,-0.0863,0.1579,1.4773,-4.5392
3998.0,-0.383,1.2612,-0.0863,0.1579,1.4773,-4.5392
4003.0,-0.383,1.2612,-0.0863,0.1579,1.4773,-4.5392
4008.0,-0.2154,0.4365,5.0319,0.1579,1.4773,-4.5392
4013.0,-0.2154,0.4365,5.0319,0.1579,1.4773,-4.5392
4019.0,-0.2154,0.4365,5.0319,0.1579,1.4773,-4.5392
4023.0,-0.2154,0.4365,5.0319,0.4065,3.2666,-3.1544
4028.0,-0.2154,0.4365,5.0319,0.4065,3.2666,-3.1544
4034.0,0.0863,0.2554,4.1978,0.4065,3.2666,-3.1544
4039.0,0.0863,0.2554,4.1978,0.4065,3.2666,-3.1544
4043.0,0.0863,0.2554,4.1978,0.4065,3.2666,-3.1544
4048.0,0.0863,0.2554,4.1978,0.4065,3.2666,-3.1544
4053.0,0.0863,0.2554,4.1978,0.9331,4.6013,-2.2314
4058.0,-5.4117,-4.2874,4.141,0.9331,4.6013,-2.2314
4063.0,-5.4117,-4.2874,4.141,0.9331,4.6013,-2.2314
4068.0,-5.4117,-4.2874,4.141,0.9331,4.6013,-2.2314
4073.0,-5.4117,-4.2874,4.141,0.9331,4.6013,-2.2314
4078.0,-5.4117,-4.2874,4.141,0.9331,4.6013,-2.2314
4083.0,-5.4117,-4.2874,4.141,0.9331,4.6013,-2.2314
4088.0,-35.6174,-34.1085,-31.7337,8.4914,-2.0938,-5.4946
4093.0,-35.6174,-34.1085,-31.7337,8.4914,-2.0938,-5.4946
4099.0,-35.6174,-34.1085,-31.7337,8.4914,-2.0938,-5.4946
4103.0,-35.6174,-34.1085,-31.7337,8.4914,-2.0938,-5.4946
4108.0,-35.6174,-34.1085,-31.7337,8.4914,-2.0938,-5.4946
4114.0,-33.8118,-25.0373,0.2407,8.4914,-2.0938,-5.4946
4118.0,-33.8118,-25.0373,0.2407,4.6667,-1.5874,-8.3718
4123.0,-33.8118,-25.0373,0.2407,4.6667,-1.5874,-8.3718
4129.0,-33.8118,-25.0373,0.2407,4.6667,-1.5874,-8.3718
4134.0,-33.8118,-25.0373,0.2407,4.6667,-1.5874,-8.3718
4138.0,-25.7755,-20.9378,5.4063,4.6667,-1.5874,-8.3718
4143.0,-25.7755,-20.9378,5.4063,4.6667,-1.5874,-8.3718
4149.0,-25.7755,-20.9378,5.4063,3.1902,4.8621,1.9384
4154.0,-25.7755,-20.9378,5.4063,3.1902,4.8621,1.9384
4159.0,-25.7755,-20.9378,5.4063,3.1902,4.8621,1.9384
4164.0,-25.7755,-20.9378,5.4063,3.1902,4.8621,1.9384
4169.0,-13.3283,-9.1495,-1.5838,3.1902,4.8621,1.9384
4174.0,-13.3283,-9.1495,-1.5838,3.1902,4.8621,1.9384
4179.0,-13.3283,-9.1495,-1.5838,3.1902,4.8621,1.9384
4183.0,-13.3283,-9.1495,-1.5838,1.5281,4.4516,2.4528
4188.0,-13.3283,-9.1495,-1.5838,1.5281,4.4516,2.4528
4193.0,-5.9433,-4.8213,2.8757,1.5281,4.4516,2.4528
4199.0,-5.9433,-4.8213,2.8757,1.5281,4.4516,2.4528
4204.0,-5.9433,-4.8213,2.8757,1.5281,4.4516,2.4528
4208.0,-5.9433,-4.8213,2.8757,1.5281,4.4516,2.4528
4213.0,-5.9433,-4.8213,2.8757,-0.5055,2.7229,2.8053
4218.0,-5.9433,-4.8213,2.8757,-0.5055,2.7229,2.8053
4224.0,-0.7949,-2.8144,3.1979,-0.5055,2.7229,2.8053
4228.0,-0.7949,-2.8144,3.1979,-0.5055,2.7229,2.8053
4233.0,-0.7949,-2.8144,3.1979,-0.5055,2.7229,2.8053
4238.0,-0.7949,-2.8144,3.1979,-0.5055,2.7229,2.8053
4245.0,3.9081,1.4757,5.2736,-2.6668,-0.7542,2.6501
4249.0,3.9081,1.4757,5.2736,-2.6668,-0.7542,2.6501
4254.0,3.9081,1.4757,5.2736,-2.6668,-0.7542,2.6501
4258.0,3.9081,1.4757,5.2736,-2.6668,-0.7542,2.6501
4263.0,3.9081,1.4757,5.2736,-2.6668,-0.7542,2.6501
4268.0,3.9081,1.4757,5.2736,-2.6668,-0.7542,2.6501
4273.0,8.1178,3.616,10.7709,-5.1793,-4.6033,3.6592
4278.0,8.1178,3.616,10.7709,-5.1793,-4.6033,3.6592
4283.0,8.1178,3.616,10.7709,-5.1793,-4.6033,3.6592
4288.0,8.1178,3.616,10.7709,-5.1793,-4.6033,3.6592
4294.0,8.1178,3.616,10.7709,-5.1793,-4.6033,3.6592
4298.0,8.1178,3.616,10.7709,-5.1793,-4.6033,3.6592
4304.0,9.8467,2.0858,3.8472,-6.9936,-6.4915,1.9787
4308.0,9.8467,2.0858,3.8472,-6.9936,-6.4915,1.9787
4314.0,9.8467,2.0858,3.8472,-6.9936,-6.4915,1.9787
4318.0,9.8467,2.0858,3.8472,-6.9936,-6.4915,1.9787
4324.0,9.8467,2.0858,3.8472,-6.9936,-6.4915,1.9787
4328.0,8.7979,-1.0841,0.7857,-6.9936,-6.4915,1.9787
4333.0,8.7979,-1.0841,0.7857,-4.7957,-6.3327,-1.0487
4338.0,8.7979,-1.0841,0.7857,-4.7957,-6.3327,-1.0487
4344.0,8.7979,-1.0841,0.7857,-4.7957,-6.3327,-1.0487
4348.0,8.7979,-1.0841,0.7857,-4.7957,-6.3327,-1.0487
4353.0,-1.4558,-2.3902,6.6243,-4.7957,-6.3327,-1.0487
4358.0,-1.4558,-2.3902,6.6243,-4.7957,-6.3327,-1.0487
4363.0,-1.4558,-2.3902,6.6243,-0.5794,16.9904,0.0704
4368.0,-1.4558,-2.3902,6.6243,-0.5794,16.9904,0.0704
4374.0,-1.4558,-2.3902,6.6243,-0.5794,16.9904,0.0704
4379.0,7.0211,-2.271,-12.768,-0.5794,16.9904,0.0704
4384.0,7.0211,-2.271,-12.768,-0.5794,16.9904,0.0704
4389.0,7.0211,-2.271,-12.768,-0.5794,16.9904,0.0704
4394.0,7.0211,-2.271,-12.768,-0.5794,16.9904,0.0704
4398.0,7.0211,-2.271,-12.768,1.3259,11.0509,-2.7549
4404.0,7.0211,-2.271,-12.768,1.3259,11.0509,-2.7549
4408.0,-3.0315,-1.4893,-33.4303,1.3259,11.0509,-2.7549
4413.0,-3.0315,-1.4893,-33.4303,1.3259,11.0509,-2.7549
4418.0,-3.0315,-1.4893,-33.4303,1.3259,11.0509,-2.7549
4423.0,-3.0315,-1.4893,-33.4303,1.3259,11.0509,-2.7549
4428.0,-3.0315,-1.4893,-33.4303,1.0803,-7.409,-2.6077
4433.0,5.2874,-0.7409,0.7431,1.0803,-7.409,-2.6077
4439.0,5.2874,-0.7409,0.7431,1.0803,-7.409,-2.6077
4443.0,5.2874,-0.7409,0.7431,1.0803,-7.409,-2.6077
4449.0,5.2874,-0.7409,0.7431,1.0803,-7.409,-2.6077
4454.0,5.2874,-0.7409,0.7431,1.0803,-7.409,-2.6077
4459.0,7.8497,-3.7058,5.5201,0.0883,-8.8445,-1.5441
4463.0,7.8497,-3.7058,5.5201,0.0883,-8.8445,-1.5441
4468.0,7.8497,-3.7058,5.5201,0.0883,-8.8445,-1.5441
4474.0,7.8497,-3.7058,5.5201,0.0883,-8.8445,-1.5441
4479.0,7.8497,-3.7058,5.5201,0.0883,-8.8445,-1.5441
4483.0,7.8497,-3.7058,5.5201,0.0883,-8.8445,-1.5441
4488.0,7.5144,-10.0743,19.2301,0.0883,-8.8445,-1.5441
4493.0,7.5144,-10.0743,19.2301,-2.3638,-5.42,2.9567
4498.0,7.5144,-10.0743,19.2301,-2.3638,-5.42,2.9567
4503.0,7.5144,-10.0743,19.2301,-2.3638,-5.42,2.9567
4508.0,7.5144,-10.0743,19.2301,-2.3638,-5.42,2.9567
4514.0,-5.7039,-32.8405,25.8127,-2.3638,-5.42,2.9567
4518.0,-5.7039,-32.8405,25.8127,-2.3638,-5.42,2.9567
4524.0,-5.7039,-32.8405,25.8127,-0.4731,4.6917,8.4436
4529.0,-5.7039,-32.8405,25.8127,-0.4731,4.6917,8.4436
4534.0,-5.7039,-32.8405,25.8127,-0.4731,4.6917,8.4436
4538.0,-5.7039,-32.8405,25.8127,-0.4731,4.6917,8.4436
4544.0,-21.106,-47.0742,13.7897,-0.4731,4.6917,8.4436
4549.0,-21.106,-47.0742,13.7897,-0.4731,4.6917,8.4436
4553.0,-21.106,-47.0742,13.7897,1.836,6.7748,3.7619
4558.0,-21.106,-47.0742,13.7897,1.836,6.7748,3.7619
4563.0,-21.106,-47.0742,13.7897,1.836,6.7748,3.7619
4569.0,-37.4612,-41.5209,-9.5122,1.836,6.7748,3.7619
4574.0,-37.4612,-41.5209,-9.5122,1.836,6.7748,3.7619
4578.0,-37.4612,-41.5209,-9.5122,1.836,6.7748,3.7619
4583.0,-37.4612,-41.5209,-9.5122,2.2281,-19.9166,4.2695
4588.0,-37.4612,-41.5209,-9.5122,2.2281,-19.9166,4.2695
4593.0,-8.9462,-12.7389,-10.5975,2.2281,-19.9166,4.2695
4598.0,-8.9462,-12.7389,-10.5975,2.2281,-19.9166,4.2695
4603.0,-8.9462,-12.7389,-10.5975,2.2281,-19.9166,4.2695
4608.0,-8.9462,-12.7389,-10.5975,2.2281,-19.9166,4.2695
4613.0,-8.9462,-12.7389,-10.5975,2.1445,0.0784,-4.0817
4619.0,-8.7977,4.4311,-26.0136,2.1445,0.0784,-4.0817
4624.0,-8.7977,4.4311,-26.0136,2.1445,0.0784,-4.0817
4628.0,-8.7977,4.4311,-26.0136,2.1445,0.0784,-4.0817
4634.0,-8.7977,4.4311,-26.0136,2.1445,0.0784,-4.0817
4638.0,-8.7977,4.4311,-26.0136,2.1445,0.0784,-4.0817
4643.0,-8.7977,4.4311,-26.0136,-0.5495,0.9117,0.3996
4648.0,-4.8993,-1.9135,2.0605,-0.5495,0.9117,0.3996
4653.0,-4.8993,-1.9135,2.0605,-0.5495,0.9117,0.3996
4659.0,-4.8993,-1.9135,2.0605,-0.5495,0.9117,0.3996
4663.0,-4.8993,-1.9135,2.0605,-0.5495,0.9117,0.3996
4670.0,-4.8993,-1.9135,2.0605,-0.5495,0.9117,0.3996
4673.0,-3.9318,-0.7027,-2.9581,0.0565,1.3887,0.9751
4678.0,-3.9318,-0.7027,-2.9581,0.0565,1.3887,0.9751
4687.0,-3.9318,-0.7027,-2.9581,0.0565,1.3887,0.9751
4688.0,-3.9318,-0.7027,-2.9581,0.0565,1.3887,0.9751
4693.0,-3.9318,-0.7027,-2.9581,0.0565,1.3887,0.9751
4698.0,-1.2643,0.6415,-2.0672,0.0565,1.3887,0.9751
4703.0,-1.2643,0.6415,-2.0672,0.376,2.6227,-2.108
4708.0,-1.2643,0.6415,-2.0672,0.376,2.6227,-2.108
4713.0,-1.2643,0.6415,-2.0672,0.376,2.6227,-2.108
4719.0,-1.2643,0.6415,-2.0672,0.376,2.6227,-2.108
4724.0,-1.2643,0.6415,-2.0672,0.376,2.6227,-2.108
4729.0,0.3689,1.0943,1.98,0.376,2.6227,-2.108
4733.0,0.3689,1.0943,1.98,0.376,2.6227,-2.108
4738.0,0.3689,1.0943,1.98,-0.241,3.244,-3.8752
4743.0,0.3689,1.0943,1.98,-0.241,3.244,-3.8752
4748.0,0.3689,1.0943,1.98,-0.241,3.244,-3.8752
4753.0,-0.7183,0.4365,4.8139,-0.241,3.244,-3.8752
4758.0,-0.7183,0.4365,4.8139,-0.241,3.244,-3.8752
4763.0,-0.7183,0.4365,4.8139,-0.241,3.244,-3.8752
4769.0,-0.7183,0.4365,4.8139,0.1915,4.2892,-2.0994
4773.0,-0.7183,0.4365,4.8139,0.1915,4.2892,-2.0994
4779.0,-0.9721,-0.0306,4.141,0.1915,4.2892,-2.0994
4784.0,-0.9721,-0.0306,4.141,0.1915,4.2892,-2.0994
4789.0,-0.9721,-0.0306,4.141,0.1915,4.2892,-2.0994
4793.0,-0.9721,-0.0306,4.141,0.1915,4.2892,-2.0994
4799.0,-0.9721,-0.0306,4.141,1.1799,5.065,-1.0719
4803.0,-0.9721,-0.0306,4.141,1.1799,5.065,-1.0719
4808.0,-10.2393,-6.4706,5.1267,1.1799,5.065,-1.0719
4813.0,-10.2393,-6.4706,5.1267,1.1799,5.065,-1.0719
4818.0,-10.2393,-6.4706,5.1267,1.1799,5.065,-1.0719
4823.0,-10.2393,-6.4706,5.1267,1.1799,5.065,-1.0719
4828.0,-10.2393,-6.4706,5.1267,6.365,4.5378,-1.21
4834.0,-42.624,-16.9528,-51.2444,6.365,4.5378,-1.21
4839.0,-42.624,-16.9528,-51.2444,6.365,4.5378,-1.21
4843.0,-42.624,-16.9528,-51.2444,6.365,4.5378,-1.21
4848.0,-42.624,-16.9528,-51.2444,6.365,4.5378,-1.21
4853.0,-42.624,-16.9528,-51.2444,6.365,4.5378,-1.21
4858.0,-42.624,-16.9528,-51.2444,6.365,4.5378,-1.21
4863.0,-38.7447,-26.7486,6.7238,3.5928,-0.9668,-8.8893
4868.0,-38.7447,-26.7486,6.7238,3.5928,-0.9668,-8.8893
4874.0,-38.7447,-26.7486,6.7238,3.5928,-0.9668,-8.8893
4878.0,-38.7447,-26.7486,6.7238,3.5928,-0.9668,-8.8893
4883.0,-38.7447,-26.7486,6.7238,3.5928,-0.9668,-8.8893
4889.0,-24.1855,-27.292,6.4631,3.5928,-0.9668,-8.8893
4894.0,-24.1855,-27.292,6.4631,4.7236,2.795,0.3746
4898.0,-24.1855,-27.292,6.4631,4.7236,2.795,0.3746
4903.0,-24.1855,-27.292,6.4631,4.7236,2.795,0.3746
4909.0,-24.1855,-27.292,6.4631,4.7236,2.795,0.3746
4913.0,-24.1855,-27.292,6.4631,4.7236,2.795,0.3746
4919.0,-12.4423,-12.553,-5.3608,4.7236,2.795,0.3746
4923.0,-12.4423,-12.553,-5.3608,1.7523,3.8829,2.2726
4929.0,-12.4423,-12.553,-5.3608,1.7523,3.8829,2.2726
4934.0,-12.4423,-12.553,-5.3608,1.7523,3.8829,2.2726
4938.0,-12.4423,-12.553,-5.3608,1.7523,3.8829,2.2726
4944.0,-6.9012,-7.0855,3.5107,1.7523,3.8829,2.2726
4948.0,-6.9012,-7.0855,3.5107,1.7523,3.8829,2.2726
4953.0,-6.9012,-7.0855,3.5107,0.5073,2.1517,2.1595
4958.0,-6.9012,-7.0855,3.5107,0.5073,2.1517,2.1595
4963.0,-6.9012,-7.0855,3.5107,0.5073,2.1517,2.1595
4968.0,-0.929,-2.6571,2.0558,0.5073,2.1517,2.1595
4973.0,-0.929,-2.6571,2.0558,0.5073,2.1517,2.1595
4978.0,-0.929,-2.6571,2.0558,0.5073,2.1517,2.1595
4983.0,-0.929,-2.6571,2.0558,0.5073,2.1517,2.1595
4989.0,-0.929,-2.6571,2.0558,-0.8305,-0.3974,2.3972
4993.0,4.4924,2.5339,2.4776,-0.8305,-0.3974,2.3972
4998.0,4.4924,2.5339,2.4776,-0.8305,-0.3974,2.3972
5004.0,4.4924,2.5339,2.4776,-0.8305,-0.3974,2.3972
5008.0,4.4924,2.5339,2.4776,-0.8305,-0.3974,2.3972
5013.0,4.4924,2.5339,2.4776,-3.6948,-3.9643,3.0563
5018.0,4.4924,2.5339,2.4776,-3.6948,-3.9643,3.0563
5024.0,9.3151,4.1785,11.624,-3.6948,-3.9643,3.0563
5029.0,9.3151,4.1785,11.624,-3.6948,-3.9643,3.0563
5033.0,9.3151,4.1785,11.624,-3.6948,-3.9643,3.0563
5038.0,9.3151,4.1785,11.624,-3.6948,-3.9643,3.0563
5044.0,9.3151,4.1785,11.624,-6.9966,-2.1439,4.3214
5050.0,10.704,2.4576,7.7853,-6.9966,-2.1439,4.3214
5054.0,10.704,2.4576,7.7853,-6.9966,-2.1439,4.3214
5059.0,10.704,2.4576,7.7853,-6.9966,-2.1439,4.3214
5064.0,10.704,2.4576,7.7853,-6.9966,-2.1439,4.3214
5068.0,10.704,2.4576,7.7853,-6.9966,-2.1439,4.3214
5073.0,10.704,2.4576,7.7853,-5.707,-5.53,-0.1471
5078.0,7.3228,-1.1365,-1.8445,-5.707,-5.53,-0.1471
5085.0,7.3228,-1.1365,-1.8445,-5.707,-5.53,-0.1471
5088.0,7.3228,-1.1365,-1.8445,-5.707,-5.53,-0.1471
5094.0,7.3228,-1.1365,-1.8445,-5.707,-5.53,-0.1471
5098.0,7.3228,-1.1365,-1.8445,-5.707,-5.53,-0.1471
5104.0,-2.0018,-7.7481,31.2342,-5.707,-5.53,-0.1471
5109.0,-2.0018,-7.7481,31.2342,-2.66,4.1383,-0.8209
5114.0,-2.0018,-7.7481,31.2342,-2.66,4.1383,-0.8209
5119.0,-2.0018,-7.7481,31.2342,-2.66,4.1383,-0.8209
5124.0,-2.0018,-7.7481,31.2342,-2.66,4.1383,-0.8209
5129.0,-2.0018,-7.7481,31.2342,-2.66,4.1383,-0.8209
5133.0,10.1197,-3.5867,-13.2371,-2.66,4.1383,-0.8209
5139.0,10.1197,-3.5867,-13.2371,1.2318,20.016,-2.6853
5144.0,10.1197,-3.5867,-13.2371,1.2318,20.016,-2.6853
5149.0,10.1197,-3.5867,-13.2371,1.2318,20.016,-2.6853
5154.0,10.1197,-3.5867,-13.2371,1.2318,20.016,-2.6853
5159.0,-1.3505,-2.8192,-22.4214,1.2318,20.016,-2.6853
5163.0,-1.3505,-2.8192,-22.4214,1.2318,20.016,-2.6853
5169.0,-1.3505,-2.8192,-22.4214,1.2776,-2.8519,-3.1397
5173.0,-1.3505,-2.8192,-22.4214,1.2776,-2.8519,-3.1397
5178.0,-1.3505,-2.8192,-22.4214,1.2776,-2.8519,-3.1397
5183.0,-1.3505,-2.8192,-22.4214,1.2776,-2.8519,-3.1397
5189.0,5.0815,-2.6428,6.2972,1.2776,-2.8519,-3.1397
5193.0,5.0815,-2.6428,6.2972,1.2776,-2.8519,-3.1397
5198.0,5.0815,-2.6428,6.2972,0.613,-6.9789,-1.9534
5203.0,5.0815,-2.6428,6.2972,0.613,-6.9789,-1.9534
5208.0,5.0815,-2.6428,6.2972,0.613,-6.9789,-1.9534
5213.0,3.1131,-9.2687,16.5715,0.613,-6.9789,-1.9534
5218.0,3.1131,-9.2687,16.5715,0.613,-6.9789,-1.9534
5223.0,3.1131,-9.2687,16.5715,0.613,-6.9789,-1.9534
5229.0,3.1131,-9.2687,16.5715,-0.4523,-4.5972,4.0997
5234.0,3.1131,-9.2687,16.5715,-0.4523,-4.5972,4.0997
5238.0,3.1131,-9.2687,16.5715,-0.4523,-4.5972,4.0997
5244.0,1.9972,-12.7199,13.4817,-0.4523,-4.5972,4.0997
5248.0,1.9972,-12.7199,13.4817,-0.4523,-4.5972,4.0997
5253.0,1.9972,-12.7199,13.4817,-0.4523,-4.5972,4.0997
5258.0,1.9972,-12.7199,13.4817,-1.0125,-3.5227,6.9915
5263.0,1.9972,-12.7199,13.4817,-1.0125,-3.5227,6.9915
5268.0,-16.0821,-34.6519,14.9555,-1.0125,-3.5227,6.9915
5273.0,-16.0821,-34.6519,14.9555,-1.0125,-3.5227,6.9915
5278.0,-16.0821,-34.6519,14.9555,-1.0125,-3.5227,6.9915
5283.0,-16.0821,-34.6519,14.9555,-1.0125,-3.5227,6.9915
5289.0,-16.0821,-34.6519,14.9555,2.1145,-0.7212,4.501
5293.0,-33.4478,-45.5012,17.9079,2.1145,-0.7212,4.501
5298.0,-33.4478,-45.5012,17.9079,2.1145,-0.7212,4.501
5303.0,-33.4478,-45.5012,17.9079,2.1145,-0.7212,4.501
5308.0,-33.4478,-45.5012,17.9079,2.1145,-0.7212,4.501
5313.0,-33.4478,-45.5012,17.9079,2.1145,-0.7212,4.501
5319.0,-33.4478,-45.5012,17.9079,4.7065,-0.6265,-0.1373
5323.0,-29.7553,-11.6426,-82.1951,4.7065,-0.6265,-0.1373
5328.0,-29.7553,-11.6426,-82.1951,4.7065,-0.6265,-0.1373
5333.0,-29.7553,-11.6426,-82.1951,4.7065,-0.6265,-0.1373
5339.0,-29.7553,-11.6426,-82.1951,4.7065,-0.6265,-0.1373
5343.0,-29.7553,-11.6426,-82.1951,4.7065,-0.6265,-0.1373
5348.0,-20.5265,-0.0211,8.8326,4.7065,-0.6265,-0.1373
5354.0,-20.5265,-0.0211,8.8326,1.4175,-4.0523,-5.5386
5358.0,-20.5265,-0.0211,8.8326,1.4175,-4.0523,-5.5386
5363.0,-20.5265,-0.0211,8.8326,1.4175,-4.0523,-5.5386
5368.0,-20.5265,-0.0211,8.8326,1.4175,-4.0523,-5.5386
5373.0,-20.5265,-0.0211,8.8326,1.4175,-4.0523,-5.5386
5379.0,-6.8006,1.695,9.4203,1.4175,-4.0523,-5.5386
5383.0,-6.8006,1.695,9.4203,-1.5342,1.3081,2.4992
5388.0,-6.8006,1.695,9.4203,-1.5342,1.3081,2.4992
5393.0,-6.8006,1.695,9.4203,-1.5342,1.3081,2.4992
5399.0,-6.8006,1.695,9.4203,-1.5342,1.3081,2.4992
5404.0,-5.9146,-2.19,-1.0767,-1.5342,1.3081,2.4992
5408.0,-5.9146,-2.19,-1.0767,-1.5342,1.3081,2.4992
5413.0,-5.9146,-2.19,-1.0767,-0.5965,3.7241,5.2023
5418.0,-5.9146,-2.19,-1.0767,-0.5965,3.7241,5.2023
5423.0,-5.9146,-2.19,-1.0767,-0.5965,3.7241,5.2023
5428.0,-1.0056,1.8427,-9.6686,-0.5965,3.7241,5.2023
5433.0,-1.0056,1.8427,-9.6686,-0.5965,3.7241,5.2023
5438.0,-1.0056,1.8427,-9.6686,-0.5965,3.7241,5.2023
5443.0,-1.0056,1.8427,-9.6686,-0.2489,3.9862,-0.5148
5448.0,-1.0056,1.8427,-9.6686,-0.2489,3.9862,-0.5148
5453.0,-0.1053,-0.3977,-4.4225,-0.2489,3.9862,-0.5148
5459.0,-0.1053,-0.3977,-4.4225,-0.2489,3.9862,-0.5148
5463.0,-0.1053,-0.3977,-4.4225,-0.2489,3.9862,-0.5148
5469.0,-0.1053,-0.3977,-4.4225,-0.2489,3.9862,-0.5148
5473.0,-0.1053,-0.3977,-4.4225,-0.2807,2.9611,-3.8276
5478.0,-0.1053,-0.3977,-4.4225,-0.2807,2.9611,-3.8276
5484.0,-1.1445,-1.7371,2.378,-0.2807,2.9611,-3.8276
5488.0,-1.1445,-1.7371,2.378,-0.2807,2.9611,-3.8276
5494.0,-1.1445,-1.7371,2.378,-0.2807,2.9611,-3.8276
5498.0,-1.1445,-1.7371,2.378,-0.2807,2.9611,-3.8276
5504.0,-1.1445,-1.7371,2.378,0.3607,3.7797,-3.3596
5508.0,-0.7374,-0.76,4.2453,0.3607,3.7797,-3.3596
5513.0,-0.7374,-0.76,4.2453,0.3607,3.7797,-3.3596
5518.0,-0.7374,-0.76,4.2453,0.3607,3.7797,-3.3596
5523.0,-0.7374,-0.76,4.2453,0.3607,3.7797,-3.3596
5528.0,-0.7374,-0.76,4.2453,0.3607,3.7797,-3.3596
5534.0,-0.7374,-0.76,4.2453,0.3607,3.7797,-3.3596
5538.0,-0.7374,-0.76,4.2453,0.3607,3.7797,-3.3596
5544.0,-0.7374,-0.76,4.2453,0.3607,3.7797,-3.3596
5549.0,-3.2853,-2.9288,3.8898,1.4633,4.4211,-2.4269
5554.0,-3.2853,-2.9288,3.8898,1.4633,4.4211,-2.4269
5558.0,-3.2853,-2.9288,3.8898,1.4633,4.4211,-2.4269
5563.0,-3.2853,-2.9288,3.8898,1.4633,4.4211,-2.4269
5568.0,-3.2853,-2.9288,3.8898,1.4633,4.4211,-2.4269
5573.0,-46.7571,-25.6618,-37.2879,1.4633,4.4211,-2.4269
5579.0,-46.7571,-25.6618,-37.2879,9.0308,-1.0352,-4.9467
5583.0,-46.7571,-25.6618,-37.2879,9.0308,-1.0352,-4.9467
5589.0,-46.7571,-25.6618,-37.2879,9.0308,-1.0352,-4.9467
5593.0,-46.7571,-25.6618,-37.2879,9.0308,-1.0352,-4.9467
5598.0,-48.0598,-20.0846,2.2785,9.0308,-1.0352,-4.9467
5604.0,-48.0598,-20.0846,2.2785,9.0308,-1.0352,-4.9467
5608.0,-48.0598,-20.0846,2.2785,2.4542,3.2611,-4.1862
5613.0,-48.0598,-20.0846,2.2785,2.4542,3.2611,-4.1862
5619.0,-48.0598,-20.0846,2.2785,2.4542,3.2611,-4.1862
5623.0,-23.2995,-19.7843,-2.8207,2.4542,3.2611,-4.1862
5629.0,-23.2995,-19.7843,-2.8207,2.4542,3.2611,-4.1862
5633.0,-23.2995,-19.7843,-2.8207,2.4542,3.2611,-4.1862
5638.0,-23.2995,-19.7843,-2.8207,2.5904,4.6887,1.4308
5643.0,-23.2995,-19.7843,-2.8207,2.5904,4.6887,1.4308
5648.0,-12.1502,-11.2755,-3.7543,2.5904,4.6887,1.4308
5654.0,-12.1502,-11.2755,-3.7543,2.5904,4.6887,1.4308
5658.0,-12.1502,-11.2755,-3.7543,2.5904,4.6887,1.4308
5663.0,-12.1502,-11.2755,-3.7543,2.5904,4.6887,1.4308
5668.0,-12.1502,-11.2755,-3.7543,2.5904,4.6887,1.4308
5673.0,-12.1502,-11.2755,-3.7543,1.7865,4.0363,2.4827
5679.0,-7.1598,-3.4627,1.6672,1.7865,4.0363,2.4827
5684.0,-7.1598,-3.4627,1.6672,1.7865,4.0363,2.4827
5689.0,-7.1598,-3.4627,1.6672,1.7865,4.0363,2.4827
5694.0,-7.1598,-3.4627,1.6672,1.7865,4.0363,2.4827
5698.0,-7.1598,-3.4627,1.6672,1.7865,4.0363,2.4827
5703.0,-1.0392,-0.5979,1.9326,0.0919,2.3435,3.4179
5708.0,-1.0392,-0.5979,1.9326,0.0919,2.3435,3.4179
5713.0,-1.0392,-0.5979,1.9326,0.0919,2.3435,3.4179
5718.0,-1.0392,-0.5979,1.9326,0.0919,2.3435,3.4179
5723.0,-1.0392,-0.5979,1.9326,0.0919,2.3435,3.4179
5729.0,4.2098,1.7569,5.3305,0.0919,2.3435,3.4179
5733.0,4.2098,1.7569,5.3305,-2.6081,-3.9356,2.8382
5739.0,4.2098,1.7569,5.3305,-2.6081,-3.9356,2.8382
5743.0,4.2098,1.7569,5.3305,-2.6081,-3.9356,2.8382
5749.0,4.2098,1.7569,5.3305,-2.6081,-3.9356,2.8382
5753.0,8.5153,1.2278,14.2399,-2.6081,-3.9356,2.8382
5758.0,8.5153,1.2278,14.2399,-2.6081,-3.9356,2.8382
5763.0,8.5153,1.2278,14.2399,-4.8616,-5.5208,3.1376
5768.0,8.5153,1.2278,14.2399,-4.8616,-5.5208,3.1376
5773.0,8.5153,1.2278,14.2399,-4.8616,-5.5208,3.1376
5778.0,8.5153,1.2278,14.2399,-4.8616,-5.5208,3.1376
5784.0,10.7615,0.7416,8.4014,-4.8616,-5.5208,3.1376
5789.0,10.7615,0.7416,8.4014,-4.8616,-5.5208,3.1376
5793.0,10.7615,0.7416,8.4014,-5.2287,-6.0284,0.5542
5798.0,10.7615,0.7416,8.4014,-5.2287,-6.0284,0.5542
5803.0,10.7615,0.7416,8.4014,-5.2287,-6.0284,0.5542
5808.0,9.1092,-1.5465,2.6434,-5.2287,-6.0284,0.5542
5814.0,9.1092,-1.5465,2.6434,-5.2287,-6.0284,0.5542
5818.0,9.1092,-1.5465,2.6434,-5.2287,-6.0284,0.5542
5823.0,9.1092,-1.5465,2.6434,-2.5861,-3.5795,0.0563
5828.0,9.1092,-1.5465,2.6434,-2.5861,-3.5795,0.0563
5833.0,9.1092,-1.5465,2.6434,-2.5861,-3.5795,0.0563
5838.0,5.2299,-8.1771,5.4869,-2.5861,-3.5795,0.0563
5843.0,5.2299,-8.1771,5.4869,-2.5861,-3.5795,0.0563
5849.0,5.2299,-8.1771,5.4869,-2.5861,-3.5795,0.0563
5854.0,5.2299,-8.1771,5.4869,0.1628,18.8401,6.2903
5858.0,5.2299,-8.1771,5.4869,0.1628,18.8401,6.2903
5863.0,5.2299,-8.1771,5.4869,0.1628,18.8401,6.2903
5869.0,9.296,-5.4839,-33.4966,0.1628,18.8401,6.2903
5873.0,9.296,-5.4839,-33.4966,0.1628,18.8401,6.2903
5878.0,9.296,-5.4839,-33.4966,0.1628,18.8401,6.2903
5883.0,9.296,-5.4839,-33.4966,0.1628,18.8401,6.2903
5889.0,9.296,-5.4839,-33.4966,0.274,3.3826,-3.7188
5893.0,-3.7594,-4.2635,-30.5252,0.274,3.3826,-3.7188
5898.0,-3.7594,-4.2635,-30.5252,0.274,3.3826,-3.7188
5903.0,-3.7594,-4.2635,-30.5252,0.274,3.3826,-3.7188
5908.0,-3.7594,-4.2635,-30.5252,0.274,3.3826,-3.7188
5914.0,-3.7594,-4.2635,-30.5252,0.274,3.3826,-3.7188
5918.0,-3.7594,-4.2635,-30.5252,0.2178,-11.0901,-7.2937
5924.0,8.8985,-2.7239,5.7428,0.2178,-11.0901,-7.2937
5929.0,8.8985,-2.7239,5.7428,0.2178,-11.0901,-7.2937
5933.0,8.8985,-2.7239,5.7428,0.2178,-11.0901,-7.2937
5938.0,8.8985,-2.7239,5.7428,0.2178,-11.0901,-7.2937
5943.0,8.8985,-2.7239,5.7428,0.2178,-11.0901,-7.2937
5949.0,7.2797,-5.4648,31.3479,-1.4853,-6.2263,-1.8985
5954.0,7.2797,-5.4648,31.3479,-1.4853,-6.2263,-1.8985
5958.0,7.2797,-5.4648,31.3479,-1.4853,-6.2263,-1.8985
5963.0,7.2797,-5.4648,31.3479,-1.4853,-6.2263,-1.8985
5968.0,7.2797,-5.4648,31.3479,-1.4853,-6.2263,-1.8985
5973.0,4.3296,-15.7134,12.8845,-1.4853,-6.2263,-1.8985
5978.0,4.3296,-15.7134,12.8845,-3.3277,-0.0199,5.961
5984.0,4.3296,-15.7134,12.8845,-3.3277,-0.0199,5.961
5988.0,4.3296,-15.7134,12.8845,-3.3277,-0.0199,5.961
5994.0,4.3296,-15.7134,12.8845,-3.3277,-0.0199,5.961
5999.0,4.3296,-15.7134,12.8845,-3.3277,-0.0199,5.961
6003.0,-5.292,-24.2508,13.9793,-3.3277,-0.0199,5.961
6008.0,-5.292,-24.2508,13.9793,-2.4493,-4.0993,5.6207
6013.0,-5.292,-24.2508,13.9793,-2.4493,-4.0993,5.6207
6018.0,-5.292,-24.2508,13.9793,-2.4493,-4.0993,5.6207
6023.0,-5.292,-24.2508,13.9793,-2.4493,-4.0993,5.6207
6029.0,-21.8052,-41.6162,21.8508,-2.4493,-4.0993,5.6207
6033.0,-21.8052,-41.6162,21.8508,-2.4493,-4.0993,5.6207
6038.0,-21.8052,-41.6162,21.8508,-2.4493,-4.0993,5.6207
6043.0,-21.8052,-41.6162,21.8508,3.2923,1.6899,2.8449
6048.0,-21.8052,-41.6162,21.8508,3.2923,1.6899,2.8449
6053.0,-33.3185,-33.8654,3.795,3.2923,1.6899,2.8449
6058.0,-33.3185,-33.8654,3.795,3.2923,1.6899,2.8449
6063.0,-33.3185,-33.8654,3.795,3.2923,1.6899,2.8449
6069.0,-33.3185,-33.8654,3.795,3.2923,1.6899,2.8449
6073.0,-33.3185,-33.8654,3.795,5.0272,-5.646,-0.6785
6078.0,-33.3185,-33.8654,3.795,5.0272,-5.646,-0.6785
6083.0,-6.9969,0.1505,-37.4205,5.0272,-5.646,-0.6785
6089.0,-6.9969,0.1505,-37.4205,5.0272,-5.646,-0.6785
6093.0,-6.9969,0.1505,-37.4205,5.0272,-5.646,-0.6785
6098.0,-6.9969,0.1505,-37.4205,5.0272,-5.646,-0.6785
6103.0,-6.9969,0.1505,-37.4205,-1.4303,-4.1946,-7.8037
6108.0,-16.3264,-0.9125,-27.8619,-1.4303,-4.1946,-7.8037
6114.0,-16.3264,-0.9125,-27.8619,-1.4303,-4.1946,-7.8037
6118.0,-16.3264,-0.9125,-27.8619,-1.4303,-4.1946,-7.8037
6123.0,-16.3264,-0.9125,-27.8619,-1.4303,-4.1946,-7.8037
6128.0,-16.3264,-0.9125,-27.8619,-1.4303,-4.1946,-7.8037
6133.0,-9.0419,1.0991,10.7851,-0.0675,0.0467,-0.0225
6138.0,-9.0419,1.0991,10.7851,-0.0675,0.0467,-0.0225
6144.0,-9.0419,1.0991,10.7851,-0.0675,0.0467,-0.0225
6148.0,-9.0419,1.0991,10.7851,-0.0675,0.0467,-0.0225
6153.0,-9.0419,1.0991,10.7851,-0.0675,0.0467,-0.0225
6159.0,-9.0419,1.0991,10.7851,-0.0675,0.0467,-0.0225
6163.0,-2.8878,1.285,0.8521,-0.7437,3.9318,2.6861
6168.0,-2.8878,1.285,0.8521,-0.7437,3.9318,2.6861
6173.0,-2.8878,1.285,0.8521,-0.7437,3.9318,2.6861
6178.0,-2.8878,1.285,0.8521,-0.7437,3.9318,2.6861
6183.0,-2.8878,1.285,0.8521,-0.7437,3.9318,2.6861
6188.0,-0.2154,1.7903,-7.6735,-0.7437,3.9318,2.6861
6193.0,-0.2154,1.7903,-7.6735,-0.7437,3.9318,2.6861
6198.0,-0.2154,1.7903,-7.6735,-0.9086,1.0668,1.534
6204.0,-0.2154,1.7903,-7.6735,-0.9086,1.0668,1.534
6209.0,-0.2154,1.7903,-7.6735,-0.9086,1.0668,1.534
6213.0,3.2233,1.8046,-5.0291,-0.9086,1.0668,1.534
6218.0,3.2233,1.8046,-5.0291,-0.9086,1.0668,1.534
6223.0,3.2233,1.8046,-5.0291,-0.9086,1.0668,1.534
6228.0,3.2233,1.8046,-5.0291,-1.5262,4.1285,-2.8264
6233.0,3.2233,1.8046,-5.0291,-1.5262,4.1285,-2.8264
6238.0,3.2233,1.8046,-5.0291,-1.5262,4.1285,-2.8264
6244.0,0.0384,-0.2213,1.4682,-1.5262,4.1285,-2.8264
6248.0,0.0384,-0.2213,1.4682,-1.5262,4.1285,-2.8264
6253.0,0.0384,-0.2213,1.4682,-1.5262,4.1285,-2.8264
6258.0,0.0384,-0.2213,1.4682,-1.021,4.3735,-2.4647
6263.0,0.0384,-0.2213,1.4682,-1.021,4.3735,-2.4647
6269.0,-0.771,-1.2176,2.8188,-1.021,4.3735,-2.4647
6273.0,-0.771,-1.2176,2.8188,-1.021,4.3735,-2.4647
6278.0,-0.771,-1.2176,2.8188,-1.021,4.3735,-2.4647
6284.0,-0.771,-1.2176,2.8188,-1.021,4.3735,-2.4647
6289.0,-0.771,-1.2176,2.8188,0.0419,4.3509,-1.7757
6294.0,-0.771,-1.2176,2.8188,0.0419,4.3509,-1.7757
6299.0,-2.6052,-2.1566,2.6814,0.0419,4.3509,-1.7757
6304.0,-2.6052,-2.1566,2.6814,0.0419,4.3509,-1.7757
6308.0,-2.6052,-2.1566,2.6814,0.0419,4.3509,-1.7757
6313.0,-2.6052,-2.1566,2.6814,0.0419,4.3509,-1.7757
6318.0,-2.6052,-2.1566,2.6814,1.9276,4.8102,-1.7983
6323.0,-11.0103,-7.4001,3.5391,1.9276,4.8102,-1.7983
6328.0,-11.0103,-7.4001,3.5391,1.9276,4.8102,-1.7983
6333.0,-11.0103,-7.4001,3.5391,1.9276,4.8102,-1.7983
6339.0,-11.0103,-7.4001,3.5391,1.9276,4.8102,-1.7983
6343.0,-11.0103,-7.4001,3.5391,1.9276,4.8102,-1.7983
6348.0,-57.801,-33.4602,-42.8705,9.2611,-0.8819,-6.3572
6353.0,-57.801,-33.4602,-42.8705,9.2611,-0.8819,-6.3572
6359.0,-57.801,-33.4602,-42.8705,9.2611,-0.8819,-6.3572
6363.0,-57.801,-33.4602,-42.8705,9.2611,-0.8819,-6.3572
6369.0,-57.801,-33.4602,-42.8705,9.2611,-0.8819,-6.3572
6373.0,-57.801,-33.4602,-42.8705,9.2611,-0.8819,-6.3572
6378.0,-52.5042,-28.7077,-5.2187,9.2611,-0.8819,-6.3572
6383.0,-52.5042,-28.7077,-5.2187,3.252,-4.8366,-8.5227
6388.0,-52.5042,-28.7077,-5.2187,3.252,-4.8366,-8.5227
6393.0,-52.5042,-28.7077,-5.2187,3.252,-4.8366,-8.5227
6398.0,-52.5042,-28.7077,-5.2187,3.252,-4.8366,-8.5227
6404.0,-9.7795,-13.6923,-2.034,3.252,-4.8366,-8.5227
6408.0,-9.7795,-13.6923,-2.034,3.252,-4.8366,-8.5227
6413.0,-9.7795,-13.6923,-2.034,2.2355,3.6135,4.0569
6418.0,-9.7795,-13.6923,-2.034,2.2355,3.6135,4.0569
6423.0,-9.7795,-13.6923,-2.034,2.2355,3.6135,4.0569
6428.0,-4.4922,-4.8451,-3.7401,2.2355,3.6135,4.0569
6433.0,-4.4922,-4.8451,-3.7401,2.2355,3.6135,4.0569
6438.0,-4.4922,-4.8451,-3.7401,2.2355,3.6135,4.0569
6443.0,-4.4922,-4.8451,-3.7401,-0.357,3.368,3.8633
6449.0,-4.4922,-4.8451,-3.7401,-0.357,3.368,3.8633
6454.0,-4.4922,-4.8451,-3.7401,-0.357,3.368,3.8633
6458.0,-0.1771,-2.0279,6.2878,-0.357,3.368,3.8633
6463.0,-0.1771,-2.0279,6.2878,-0.357,3.368,3.8633
6469.0,-0.1771,-2.0279,6.2878,-0.357,3.368,3.8633
6473.0,-0.1771,-2.0279,6.2878,-1.9221,4.313,4.4863
6478.0,-0.1771,-2.0279,6.2878,-1.9221,4.313,4.4863
6483.0,2.8305,-0.6408,-0.3801,-1.9221,4.313,4.4863
6488.0,2.8305,-0.6408,-0.3801,-1.9221,4.313,4.4863
6493.0,2.8305,-0.6408,-0.3801,-1.9221,4.313,4.4863
6499.0,2.8305,-0.6408,-0.3801,-1.9221,4.313,4.4863
6504.0,2.8305,-0.6408,-0.3801,-4.2183,-1.6246,3.4112
6508.0,2.8305,-0.6408,-0.3801,-4.2183,-1.6246,3.4112
6513.0,7.8832,3.6541,8.1123,-4.2183,-1.6246,3.4112
6539.0,7.8832,3.6541,8.1123,-6.9281,-6.332,2.2945
6539.0,12.3802,2.4386,6.9133,-6.9281,-6.332,2.2945
6540.0,12.3802,2.4386,6.9133,-6.9281,-6.332,2.2945
6540.0,12.3802,2.4386,6.9133,-6.9281,-6.332,2.2945
6540.0,12.3802,2.4386,6.9133,-6.9281,-6.332,2.2945
6543.0,12.3802,2.4386,6.9133,-6.9281,-6.332,2.2945
6548.0,12.3802,2.4386,6.9133,-6.9281,-6.332,2.2945
6554.0,12.3802,2.4386,6.9133,-6.9281,-6.332,2.2945
6558.0,12.3802,2.4386,6.9133,-6.9281,-6.332,2.2945
6563.0,12.3802,2.4386,6.9133,-6.9281,-6.332,2.2945
6568.0,10.9052,-1.5894,3.9277,-5.9263,-6.1378,-1.8019
6573.0,10.9052,-1.5894,3.9277,-5.9263,-6.1378,-1.8019
6578.0,10.9052,-1.5894,3.9277,-5.9263,-6.1378,-1.8019
6584.0,10.9052,-1.5894,3.9277,-5.9263,-6.1378,-1.8019
6588.0,10.9052,-1.5894,3.9277,-5.9263,-6.1378,-1.8019
6593.0,3.8506,-0.1212,19.1353,-5.9263,-6.1378,-1.8019
6598.0,3.8506,-0.1212,19.1353,-3.3833,4.6172,1.1479
6603.0,3.8506,-0.1212,19.1353,-3.3833,4.6172,1.1479
6608.0,3.8506,-0.1212,19.1353,-3.3833,4.6172,1.1479
6613.0,3.8506,-0.1212,19.1353,-3.3833,4.6172,1.1479
6618.0,3.8506,-0.1212,19.1353,-3.3833,4.6172,1.1479
6623.0,2.1313,-9.9694,-8.2185,-3.3833,4.6172,1.1479
6629.0,2.1313,-9.9694,-8.2185,1.219,20.016,-1.2467
6633.0,2.1313,-9.9694,-8.2185,1.219,20.016,-1.2467
6638.0,2.1313,-9.9694,-8.2185,1.219,20.016,-1.2467
6644.0,2.1313,-9.9694,-8.2185,1.219,20.016,-1.2467
6649.0,4.8755,-0.9983,-29.331,1.219,20.016,-1.2467
6654.0,4.8755,-0.9983,-29.331,1.219,20.016,-1.2467
6658.0,4.8755,-0.9983,-29.331,1.5489,15.0148,-5.2057
6663.0,4.8755,-0.9983,-29.331,1.5489,15.0148,-5.2057
6668.0,4.8755,-0.9983,-29.331,1.5489,15.0148,-5.2057
6674.0,4.8755,-0.9983,-29.331,1.5489,15.0148,-5.2057
6678.0,4.8755,-0.9983,-29.331,1.5489,15.0148,-5.2057
6683.0,4.7127,-4.7402,-0.2711,1.5489,15.0148,-5.2057
6688.0,4.7127,-4.7402,-0.2711,-0.3497,-6.5709,-1.5814
6694.0,4.7127,-4.7402,-0.2711,-0.3497,-6.5709,-1.5814
6698.0,4.7127,-4.7402,-0.2711,-0.3497,-6.5709,-1.5814
6704.0,4.7127,-4.7402,-0.2711,-0.3497,-6.5709,-1.5814
6708.0,4.7127,-4.7402,-0.2711,-0.3497,-6.5709,-1.5814
6713.0,4.0039,-14.1356,18.0548,-0.3497,-6.5709,-1.5814
6718.0,4.0039,-14.1356,18.0548,-1.9141,-6.5819,5.6091
6723.0,4.0039,-14.1356,18.0548,-1.9141,-6.5819,5.6091
6729.0,4.0039,-14.1356,18.0548,-1.9141,-6.5819,5.6091
6733.0,4.0039,-14.1356,18.0548,-1.9141,-6.5819,5.6091
6738.0,-2.6004,-22.53,12.5102,-1.9141,-6.5819,5.6091
6743.0,-2.6004,-22.53,12.5102,-1.9141,-6.5819,5.6091
6748.0,-2.6004,-22.53,12.5102,-0.0833,-5.9967,8.8345
6753.0,-2.6004,-22.53,12.5102,-0.0833,-5.9967,8.8345
6759.0,-2.6004,-22.53,12.5102,-0.0833,-5.9967,8.8345
6763.0,-11.1396,-35.0238,18.3819,-0.0833,-5.9967,8.8345
6768.0,-11.1396,-35.0238,18.3819,-0.0833,-5.9967,8.8345
6773.0,-11.1396,-35.0238,18.3819,-0.0833,-5.9967,8.8345
6778.0,-11.1396,-35.0238,18.3819,-0.0833,-5.9967,8.8345
6783.0,-11.1396,-35.0238,18.3819,4.4988,0.9178,5.5468
6788.0,-11.1396,-35.0238,18.3819,4.4988,0.9178,5.5468
6793.0,-22.9498,-37.9744,8.7568,4.4988,0.9178,5.5468
6799.0,-22.9498,-37.9744,8.7568,4.4988,0.9178,5.5468
6804.0,-22.9498,-37.9744,8.7568,4.4988,0.9178,5.5468
6808.0,-22.9498,-37.9744,8.7568,4.4988,0.9178,5.5468
6814.0,-22.9498,-37.9744,8.7568,5.6381,-15.5525,-1.7128
6818.0,-9.9136,-18.6831,-30.075,5.6381,-15.5525,-1.7128
6824.0,-9.9136,-18.6831,-30.075,5.6381,-15.5525,-1.7128
6828.0,-9.9136,-18.6831,-30.075,5.6381,-15.5525,-1.7128
6833.0,-9.9136,-18.6831,-30.075,5.6381,-15.5525,-1.7128
6838.0,-9.9136,-18.6831,-30.075,5.6381,-15.5525,-1.7128
6844.0,-11.4366,-2.7858,3.359,6.5226,-7.1414,-4.7977
6849.0,-11.4366,-2.7858,3.359,6.5226,-7.1414,-4.7977
6853.0,-11.4366,-2.7858,3.359,6.5226,-7.1414,-4.7977
6859.0,-11.4366,-2.7858,3.359,6.5226,-7.1414,-4.7977
6864.0,-11.4366,-2.7858,3.359,6.5226,-7.1414,-4.7977
6869.0,-11.4366,-2.7858,3.359,6.5226,-7.1414,-4.7977
6874.0,0.3545,10.933,0.4303,-1.7083,-0.6772,0.2994
6879.0,0.3545,10.933,0.4303,-1.7083,-0.6772,0.2994
6883.0,0.3545,10.933,0.4303,-1.7083,-0.6772,0.2994
6888.0,0.3545,10.933,0.4303,-1.7083,-0.6772,0.2994
6893.0,0.3545,10.933,0.4303,-1.7083,-0.6772,0.2994
6899.0,-5.1914,-1.1985,3.9182,-1.7083,-0.6772,0.2994
6903.0,-5.1914,-1.1985,3.9182,-2.0852,3.4022,3.3459
6909.0,-5.1914,-1.1985,3.9182,-2.0852,3.4022,3.3459
6913.0,-5.1914,-1.1985,3.9182,-2.0852,3.4022,3.3459
6918.0,-5.1914,-1.1985,3.9182,-2.0852,3.4022,3.3459
6923.0,-5.1914,-1.1985,3.9182,-2.0852,3.4022,3.3459
6928.0,3.7549,2.062,-21.1135,-2.0852,3.4022,3.3459
6934.0,3.7549,2.062,-21.1135,-1.5855,4.2757,-1.2051
6939.0,3.7549,2.062,-21.1135,-1.5855,4.2757,-1.2051
6943.0,3.7549,2.062,-21.1135,-1.5855,4.2757,-1.2051
6949.0,3.7549,2.062,-21.1135,-1.5855,4.2757,-1.2051
6953.0,3.7549,2.062,-21.1135,-1.5855,4.2757,-1.2051
6959.0,-1.9491,-3.2625,-2.56,-1.5855,4.2757,-1.2051
6963.0,-1.9491,-3.2625,-2.56,-1.5855,4.2757,-1.2051
6968.0,-1.9491,-3.2625,-2.56,-1.5855,4.2757,-1.2051
6973.0,-1.9491,-3.2625,-2.56,-1.5855,4.2757,-1.2051
6978.0,-1.9491,-3.2625,-2.56,-0.7449,1.9465,-3.1098
6983.0,-1.9491,-3.2625,-2.56,-0.7449,1.9465,-3.1098
6988.0,-3.6205,-0.7457,5.0509,-0.7449,1.9465,-3.1098
6993.0,-3.6205,-0.7457,5.0509,-0.7449,1.9465,-3.1098
6998.0,-3.6205,-0.7457,5.0509,-0.7449,1.9465,-3.1098
7004.0,-3.6205,-0.7457,5.0509,-0.7449,1.9465,-3.1098
7008.0,-3.6205,-0.7457,5.0509,1.453,3.8609,-2.7341
7014.0,-3.3092,0.6987,5.4016,1.453,3.8609,-2.7341
7018.0,-3.3092,0.6987,5.4016,1.453,3.8609,-2.7341
7023.0,-3.3092,0.6987,5.4016,1.453,3.8609,-2.7341
7028.0,-3.3092,0.6987,5.4016,1.453,3.8609,-2.7341
7033.0,-3.3092,0.6987,5.4016,1.453,3.8609,-2.7341
7038.0,-3.3092,0.6987,5.4016,2.7493,5.3454,-1.8496
7043.0,-10.7996,-3.6391,6.4205,2.7493,5.3454,-1.8496
7048.0,-10.7996,-3.6391,6.4205,2.7493,5.3454,-1.8496
7053.0,-10.7996,-3.6391,6.4205,2.7493,5.3454,-1.8496
7058.0,-10.7996,-3.6391,6.4205,2.7493,5.3454,-1.8496
7063.0,-10.7996,-3.6391,6.4205,2.7493,5.3454,-1.8496
7068.0,-41.4554,-13.9449,-33.653,2.7493,5.3454,-1.8496
7073.0,-41.4554,-13.9449,-33.653,5.5971,3.8982,-2.2925
7079.0,-41.4554,-13.9449,-33.653,5.5971,3.8982,-2.2925
7083.0,-41.4554,-13.9449,-33.653,5.5971,3.8982,-2.2925
7088.0,-41.4554,-13.9449,-33.653,5.5971,3.8982,-2.2925
7094.0,-53.1507,-33.8034,3.2026,5.5971,3.8982,-2.2925
7098.0,-53.1507,-33.8034,3.2026,5.5971,3.8982,-2.2925
7103.0,-53.1507,-33.8034,3.2026,4.9734,0.9434,-7.3505
7109.0,-53.1507,-33.8034,3.2026,4.9734,0.9434,-7.3505
7113.0,-53.1507,-33.8034,3.2026,4.9734,0.9434,-7.3505
7118.0,-19.0179,-34.385,-6.4129,4.9734,0.9434,-7.3505
7123.0,-19.0179,-34.385,-6.4129,4.9734,0.9434,-7.3505
7128.0,-19.0179,-34.385,-6.4129,4.9734,0.9434,-7.3505
7133.0,-19.0179,-34.385,-6.4129,4.9734,0.9434,-7.3505
7138.0,-19.0179,-34.385,-6.4129,3.6796,3.079,2.1773
7144.0,-19.0179,-34.385,-6.4129,3.6796,3.079,2.1773
7149.0,-7.088,-12.7246,-6.8299,3.6796,3.079,2.1773
7153.0,-7.088,-12.7246,-6.8299,3.6796,3.079,2.1773
7158.0,-7.088,-12.7246,-6.8299,3.6796,3.079,2.1773
7164.0,-7.088,-12.7246,-6.8299,3.6796,3.079,2.1773
7168.0,-7.088,-12.7246,-6.8299,0.9496,2.7791,2.3923
7173.0,-4.8274,-4.1301,5.847,0.9496,2.7791,2.3923
7178.0,-4.8274,-4.1301,5.847,0.9496,2.7791,2.3923
7183.0,-4.8274,-4.1301,5.847,0.9496,2.7791,2.3923
7188.0,-4.8274,-4.1301,5.847,0.9496,2.7791,2.3923
7193.0,-4.8274,-4.1301,5.847,0.9496,2.7791,2.3923
7199.0,0.2587,0.0647,3.2643,-0.0033,3.2146,2.4809
7203.0,0.2587,0.0647,3.2643,-0.0033,3.2146,2.4809
7208.0,0.2587,0.0647,3.2643,-0.0033,3.2146,2.4809
7213.0,0.2587,0.0647,3.2643,-0.0033,3.2146,2.4809
7219.0,0.2587,0.0647,3.2643,-0.0033,3.2146,2.4809
7224.0,0.2587,0.0647,3.2643,-0.0033,3.2146,2.4809
7229.0,7.1935,4.2833,8.2023,-2.7926,-2.8116,2.9488
7234.0,7.1935,4.2833,8.2023,-2.7926,-2.8116,2.9488
7239.0,7.1935,4.2833,8.2023,-2.7926,-2.8116,2.9488
7243.0,7.1935,4.2833,8.2023,-2.7926,-2.8116,2.9488
7248.0,7.1935,4.2833,8.2023,-2.7926,-2.8116,2.9488
7253.0,13.2184,3.964,14.5764,-2.7926,-2.8116,2.9488
7259.0,13.2184,3.964,14.5764,-6.547,-4.7664,3.3575
7263.0,13.2184,3.964,14.5764,-6.547,-4.7664,3.3575
7268.0,13.2184,3.964,14.5764,-6.547,-4.7664,3.3575
7273.0,13.2184,3.964,14.5764,-6.547,-4.7664,3.3575
7278.0,13.2184,3.964,14.5764,-6.547,-4.7664,3.3575
7283.0,13.3333,0.8465,6.3209,-6.547,-4.7664,3.3575
7288.0,13.3333,0.8465,6.3209,-7.1676,-4.1781,0.6702
7293.0,13.3333,0.8465,6.3209,-7.1676,-4.1781,0.6702
7298.0,13.3333,0.8465,6.3209,-7.1676,-4.1781,0.6702
7303.0,13.3333,0.8465,6.3209,-7.1676,-4.1781,0.6702
7308.0,7.7108,-1.1413,2.7335,-7.1676,-4.1781,0.6702
7313.0,7.7108,-1.1413,2.7335,-7.1676,-4.1781,0.6702
7319.0,7.7108,-1.1413,2.7335,-7.1676,-4.1781,0.6702
7323.0,7.7108,-1.1413,2.7335,-5.3729,9.3081,1.4198
7328.0,7.7108,-1.1413,2.7335,-5.3729,9.3081,1.4198
7333.0,5.6227,-6.6565,-1.3942,-5.3729,9.3081,1.4198
7339.0,5.6227,-6.6565,-1.3942,-5.3729,9.3081,1.4198
7343.0,5.6227,-6.6565,-1.3942,-5.3729,9.3081,1.4198
7348.0,5.6227,-6.6565,-1.3942,-5.3729,9.3081,1.4198
7353.0,5.6227,-6.6565,-1.3942,-1.583,20.016,-1.3475
7358.0,5.6227,-6.6565,-1.3942,-1.583,20.016,-1.3475
7363.0,7.9071,-11.8332,-59.8837,-1.583,20.016,-1.3475
7368.0,7.9071,-11.8332,-59.8837,-1.583,20.016,-1.3475
7373.0,7.9071,-11.8332,-59.8837,-1.583,20.016,-1.3475
7378.0,7.9071,-11.8332,-59.8837,-1.583,20.016,-1.3475
7383.0,7.9071,-11.8332,-59.8837,0.2838,-5.7584,-7.877
7388.0,6.8631,-8.792,-5.2234,0.2838,-5.7584,-7.877
7394.0,6.8631,-8.792,-5.2234,0.2838,-5.7584,-7.877
7399.0,6.8631,-8.792,-5.2234,0.2838,-5.7584,-7.877
7403.0,6.8631,-8.792,-5.2234,0.2838,-5.7584,-7.877
7408.0,6.8631,-8.792,-5.2234,0.2838,-5.7584,-7.877
7414.0,15.7423,-11.1611,30.8977,-1.4083,-14.7058,-2.2467
7418.0,15.7423,-11.1611,30.8977,-1.4083,-14.7058,-2.2467
7424.0,15.7423,-11.1611,30.8977,-1.4083,-14.7058,-2.2467
7428.0,15.7423,-11.1611,30.8977,-1.4083,-14.7058,-2.2467
7433.0,15.7423,-11.1611,30.8977,-1.4083,-14.7058,-2.2467
7439.0,6.1734,-20.2228,29.9641,-1.4083,-14.7058,-2.2467
7443.0,6.1734,-20.2228,29.9641,-3.2483,-2.1091,9.9689
7448.0,6.1734,-20.2228,29.9641,-3.2483,-2.1091,9.9689
7453.0,6.1734,-20.2228,29.9641,-3.2483,-2.1091,9.9689
7458.0,6.1734,-20.2228,29.9641,-3.2483,-2.1091,9.9689
7463.0,6.1734,-20.2228,29.9641,-3.2483,-2.1091,9.9689
7468.0,1.2261,-17.2436,8.5673,-3.2483,-2.1091,9.9689
7473.0,1.2261,-17.2436,8.5673,-2.3252,-1.3699,9.38
7478.0,1.2261,-17.2436,8.5673,-2.3252,-1.3699,9.38
7484.0,1.2261,-17.2436,8.5673,-2.3252,-1.3699,9.38
7488.0,1.2261,-17.2436,8.5673,-2.3252,-1.3699,9.38
7493.0,-6.7096,-26.1051,14.2826,-2.3252,-1.3699,9.38
7498.0,-6.7096,-26.1051,14.2826,-2.3252,-1.3699,9.38
7505.0,-6.7096,-26.1051,14.2826,0.8421,3.9483,3.1058
7509.0,-6.7096,-26.1051,14.2826,0.8421,3.9483,3.1058
7513.0,-6.7096,-26.1051,14.2826,0.8421,3.9483,3.1058
7519.0,-23.4096,-45.7681,6.5674,0.8421,3.9483,3.1058
7524.0,-23.4096,-45.7681,6.5674,0.8421,3.9483,3.1058
7528.0,-23.4096,-45.7681,6.5674,0.8421,3.9483,3.1058
7533.0,-23.4096,-45.7681,6.5674,0.8421,3.9483,3.1058
7539.0,-23.4096,-45.7681,6.5674,7.5702,-7.745,0.9537
7544.0,-23.4096,-45.7681,6.5674,7.5702,-7.745,0.9537
7549.0,-14.0371,-28.703,1.3402,7.5702,-7.745,0.9537
7554.0,-14.0371,-28.703,1.3402,7.5702,-7.745,0.9537
7558.0,-14.0371,-28.703,1.3402,7.5702,-7.745,0.9537
7563.0,-14.0371,-28.703,1.3402,7.5702,-7.745,0.9537
7569.0,-14.0371,-28.703,1.3402,9.1023,-6.4499,-3.276
7573.0,-14.0371,-28.703,1.3402,9.1023,-6.4499,-3.276
7578.0,-12.4088,9.4601,-8.9341,9.1023,-6.4499,-3.276
7584.0,-12.4088,9.4601,-8.9341,9.1023,-6.4499,-3.276
7588.0,-12.4088,9.4601,-8.9341,9.1023,-6.4499,-3.276
7593.0,-12.4088,9.4601,-8.9341,9.1023,-6.4499,-3.276
7612.0,-10.0046,-7.2428,5.1078,-2.2635,-5.949,-6.5826
7617.0,-10.0046,-7.2428,5.1078,-2.2635,-5.949,-6.5826
7618.0,-10.0046,-7.2428,5.1078,-2.2635,-5.949,-6.5826
7624.0,-10.0046,-7.2428,5.1078,-2.2635,-5.949,-6.5826
7627.0,-10.0046,-7.2428,5.1078,-2.2635,-5.949,-6.5826
7627.0,-10.0046,-7.2428,5.1078,-2.2635,-5.949,-6.5826
7628.0,-10.0046,-7.2428,5.1078,-0.1444,2.5164,-0.8808
7633.0,-5.4788,-1.2652,7.1645,-0.1444,2.5164,-0.8808
7638.0,-5.4788,-1.2652,7.1645,-0.1444,2.5164,-0.8808
7643.0,-5.4788,-1.2652,7.1645,-0.1444,2.5164,-0.8808
7648.0,-5.4788,-1.2652,7.1645,-0.1444,2.5164,-0.8808
7653.0,-5.4788,-1.2652,7.1645,-0.1444,2.5164,-0.8808
7658.0,-0.0143,3.1107,-12.9812,-0.1444,2.5164,-0.8808
7664.0,-0.0143,3.1107,-12.9812,0.0388,1.9043,0.0795
7669.0,-0.0143,3.1107,-12.9812,0.0388,1.9043,0.0795
7673.0,-0.0143,3.1107,-12.9812,0.0388,1.9043,0.0795
7678.0,-0.0143,3.1107,-12.9812,0.0388,1.9043,0.0795
7683.0,-0.6895,1.4328,4.122,0.0388,1.9043,0.0795
7688.0,-0.6895,1.4328,4.122,0.0388,1.9043,0.0795
7693.0,-0.6895,1.4328,4.122,0.0388,1.9043,0.0795
7698.0,-0.6895,1.4328,4.122,-0.0552,3.5073,-3.2564
7703.0,-0.6895,1.4328,4.122,-0.0552,3.5073,-3.2564
7708.0,-0.6895,1.4328,4.122,-0.0552,3.5073,-3.2564
7713.0,-1.5133,0.6558,5.1551,-0.0552,3.5073,-3.2564
7718.0,-1.5133,0.6558,5.1551,-0.0552,3.5073,-3.2564
7723.0,-1.5133,0.6558,5.1551,-0.0552,3.5073,-3.2564
7728.0,-1.5133,0.6558,5.1551,0.9313,5.4028,-2.1318
7733.0,-1.5133,0.6558,5.1551,0.9313,5.4028,-2.1318
7738.0,-1.2499,0.7893,3.6528,0.9313,5.4028,-2.1318
7744.0,-1.2499,0.7893,3.6528,0.9313,5.4028,-2.1318
7749.0,-1.2499,0.7893,3.6528,0.9313,5.4028,-2.1318
7753.0,-1.2499,0.7893,3.6528,0.9313,5.4028,-2.1318
7758.0,-1.2499,0.7893,3.6528,2.0187,5.547,-1.6138
7763.0,-4.3054,-0.8744,3.5628,2.0187,5.547,-1.6138
7768.0,-4.3054,-0.8744,3.5628,2.0187,5.547,-1.6138
7773.0,-4.3054,-0.8744,3.5628,2.0187,5.547,-1.6138
7779.0,-4.3054,-0.8744,3.5628,2.0187,5.547,-1.6138
7783.0,-4.3054,-0.8744,3.5628,2.0187,5.547,-1.6138
7788.0,-32.4948,-14.4931,-19.2557,5.5196,5.2385,-2.5038
7793.0,-32.4948,-14.4931,-19.2557,5.5196,5.2385,-2.5038
7798.0,-32.4948,-14.4931,-19.2557,5.5196,5.2385,-2.5038
7803.0,-32.4948,-14.4931,-19.2557,5.5196,5.2385,-2.5038
7809.0,-32.4948,-14.4931,-19.2557,5.5196,5.2385,-2.5038
7814.0,-32.4948,-14.4931,-19.2557,5.5196,5.2385,-2.5038
7818.0,-60.2387,-15.9089,-3.3183,5.5196,5.2385,-2.5038
7824.0,-60.2387,-15.9089,-3.3183,6.5654,-4.6295,-7.9125
7829.0,-60.2387,-15.9089,-3.3183,6.5654,-4.6295,-7.9125
7834.0,-60.2387,-15.9089,-3.3183,6.5654,-4.6295,-7.9125
7838.0,-60.2387,-15.9089,-3.3183,6.5654,-4.6295,-7.9125
7844.0,-28.4144,-33.8177,4.8092,6.5654,-4.6295,-7.9125
7848.0,-28.4144,-33.8177,4.8092,6.5654,-4.6295,-7.9125
7853.0,-28.4144,-33.8177,4.8092,5.0773,3.4419,2.3312
7858.0,-28.4144,-33.8177,4.8092,5.0773,3.4419,2.3312
7863.0,-28.4144,-33.8177,4.8092,5.0773,3.4419,2.3312
7868.0,-11.403,-17.01,-4.4841,5.0773,3.4419,2.3312
7874.0,-11.403,-17.01,-4.4841,5.0773,3.4419,2.3312
7878.0,-11.403,-17.01,-4.4841,5.0773,3.4419,2.3312
7883.0,-11.403,-17.01,-4.4841,5.0773,3.4419,2.3312
7888.0,-11.403,-17.01,-4.4841,1.9679,4.5286,3.2744
7894.0,-11.403,-17.01,-4.4841,1.9679,4.5286,3.2744
7899.0,-4.2288,-7.648,4.1789,1.9679,4.5286,3.2744
7904.0,-4.2288,-7.648,4.1789,1.9679,4.5286,3.2744
7908.0,-4.2288,-7.648,4.1789,1.9679,4.5286,3.2744
7913.0,-4.2288,-7.648,4.1789,1.9679,4.5286,3.2744
7918.0,-4.2288,-7.648,4.1789,-0.0302,4.6215,3.5621
7923.0,2.7778,-2.6667,2.7572,-0.0302,4.6215,3.5621
7929.0,2.7778,-2.6667,2.7572,-0.0302,4.6215,3.5621
7934.0,2.7778,-2.6667,2.7572,-0.0302,4.6215,3.5621
7939.0,2.7778,-2.6667,2.7572,-0.0302,4.6215,3.5621
7943.0,2.7778,-2.6667,2.7572,-0.0302,4.6215,3.5621
7948.0,2.7778,-2.6667,2.7572,-2.7143,-2.0571,4.1552
7953.0,9.4732,4.2976,1.8141,-2.7143,-2.0571,4.1552
7959.0,9.4732,4.2976,1.8141,-2.7143,-2.0571,4.1552
7964.0,9.4732,4.2976,1.8141,-2.7143,-2.0571,4.1552
7968.0,9.4732,4.2976,1.8141,-2.7143,-2.0571,4.1552
7973.0,9.4732,4.2976,1.8141,-2.7143,-2.0571,4.1552
7978.0,14.8323,2.9296,8.572,-6.5915,-8.5825,2.9189
7984.0,14.8323,2.9296,8.572,-6.5915,-8.5825,2.9189
7988.0,14.8323,2.9296,8.572,-6.5915,-8.5825,2.9189
7993.0,14.8323,2.9296,8.572,-6.5915,-8.5825,2.9189
7998.0,14.8323,2.9296,8.572,-6.5915,-8.5825,2.9189
8010.0,17.567,-2.905,6.1883,-7.3124,-7.1225,-0.8227
8013.0,17.567,-2.905,6.1883,-7.3124,-7.1225,-0.8227
8013.0,17.567,-2.905,6.1883,-7.3124,-7.1225,-0.8227
8019.0,17.567,-2.905,6.1883,-7.3124,-7.1225,-0.8227
8023.0,17.567,-2.905,6.1883,-7.3124,-7.1225,-0.8227
8028.0,17.567,-2.905,6.1883,-7.3124,-7.1225,-0.8227
8033.0,1.1591,-6.6374,22.9171,-7.3124,-7.1225,-0.8227
8039.0,1.1591,-6.6374,22.9171,-7.3124,-7.1225,-0.8227
8043.0,1.1591,-6.6374,22.9171,-3.9843,9.4584,1.3385
8048.0,1.1591,-6.6374,22.9171,-3.9843,9.4584,1.3385
8053.0,1.1591,-6.6374,22.9171,-3.9843,9.4584,1.3385
8058.0,-0.6177,-14.0736,-9.5217,-3.9843,9.4584,1.3385
8064.0,-0.6177,-14.0736,-9.5217,-3.9843,9.4584,1.3385
8069.0,-0.6177,-14.0736,-9.5217,-3.9843,9.4584,1.3385
8073.0,-0.6177,-14.0736,-9.5217,2.8794,20.016,-4.1367
8078.0,-0.6177,-14.0736,-9.5217,2.8794,20.016,-4.1367
8083.0,-0.6177,-14.0736,-9.5217,2.8794,20.016,-4.1367
8089.0,1.8392,2.4863,-30.0845,2.8794,20.016,-4.1367
8093.0,1.8392,2.4863,-30.0845,2.8794,20.016,-4.1367
8098.0,1.8392,2.4863,-30.0845,2.8794,20.016,-4.1367
8103.0,1.8392,2.4863,-30.0845,0.8629,-7.365,-2.841
8108.0,1.8392,2.4863,-30.0845,0.8629,-7.365,-2.841
8113.0,7.5623,-1.9517,16.9791,0.8629,-7.365,-2.841
8118.0,7.5623,-1.9517,16.9791,0.8629,-7.365,-2.841
8123.0,7.5623,-1.9517,16.9791,0.8629,-7.365,-2.841
8129.0,7.5623,-1.9517,16.9791,0.8629,-7.365,-2.841
8133.0,7.5623,-1.9517,16.9791,0.8629,-7.365,-2.841
8138.0,7.5623,-1.9517,16.9791,-0.3527,-6.8195,1.6067
8145.0,5.8956,-5.3409,13.4769,-0.3527,-6.8195,1.6067
8148.0,5.8956,-5.3409,13.4769,-0.3527,-6.8195,1.6067
8154.0,5.8956,-5.3409,13.4769,-0.3527,-6.8195,1.6067
8158.0,5.8956,-5.3409,13.4769,-0.3527,-6.8195,1.6067
8163.0,5.8956,-5.3409,13.4769,-0.3527,-6.8195,1.6067
8169.0,7.2606,-3.6486,5.6764,-3.9001,-7.8891,5.3287
8174.0,7.2606,-3.6486,5.6764,-3.9001,-7.8891,5.3287
8178.0,7.2606,-3.6486,5.6764,-3.9001,-7.8891,5.3287
8183.0,7.2606,-3.6486,5.6764,-3.9001,-7.8891,5.3287
8189.0,7.2606,-3.6486,5.6764,-3.9001,-7.8891,5.3287
8193.0,7.2606,-3.6486,5.6764,-3.9001,-7.8891,5.3287
8198.0,-4.3054,-20.9998,26.6563,-3.9001,-7.8891,5.3287
8203.0,-4.3054,-20.9998,26.6563,-3.1737,-1.5703,6.3128
8209.0,-4.3054,-20.9998,26.6563,-3.1737,-1.5703,6.3128
8213.0,-4.3054,-20.9998,26.6563,-3.1737,-1.5703,6.3128
8219.0,-4.3054,-20.9998,26.6563,-3.1737,-1.5703,6.3128
8224.0,-32.648,-56.7604,21.1352,-3.1737,-1.5703,6.3128
8228.0,-32.648,-56.7604,21.1352,-3.1737,-1.5703,6.3128
8234.0,-32.648,-56.7604,21.1352,6.0804,6.9789,4.1375
8238.0,-32.648,-56.7604,21.1352,6.0804,6.9789,4.1375
8244.0,-32.648,-56.7604,21.1352,6.0804,6.9789,4.1375
8248.0,-38.4574,-34.2563,-9.3369,6.0804,6.9789,4.1375
8253.0,-38.4574,-34.2563,-9.3369,6.0804,6.9789,4.1375
8258.0,-38.4574,-34.2563,-9.3369,6.0804,6.9789,4.1375
8263.0,-38.4574,-34.2563,-9.3369,6.1665,-4.5923,0.8993
8269.0,-38.4574,-34.2563,-9.3369,6.1665,-4.5923,0.8993
8274.0,15.2729,5.0317,-113.6056,6.1665,-4.5923,0.8993
8279.0,15.2729,5.0317,-113.6056,6.1665,-4.5923,0.8993
8283.0,15.2729,5.0317,-113.6056,6.1665,-4.5923,0.8993
8288.0,15.2729,5.0317,-113.6056,6.1665,-4.5923,0.8993
8293.0,15.2729,5.0317,-113.6056,6.1665,-4.5923,0.8993
8298.0,15.2729,5.0317,-113.6056,-0.8811,5.6606,-3.4776
8304.0,-10.3734,-9.202,-29.3973,-0.8811,5.6606,-3.4776
8309.0,-10.3734,-9.202,-29.3973,-0.8811,5.6606,-3.4776
8313.0,-10.3734,-9.202,-29.3973,-0.8811,5.6606,-3.4776
8318.0,-10.3734,-9.202,-29.3973,-0.8811,5.6606,-3.4776
8323.0,-10.3734,-9.202,-29.3973,-0.8811,5.6606,-3.4776
8328.0,-10.0237,-6.6803,7.591,-0.2867,2.0467,-3.5338
8333.0,-10.0237,-6.6803,7.591,-0.2867,2.0467,-3.5338
8339.0,-10.0237,-6.6803,7.591,-0.2867,2.0467,-3.5338
8343.0,-10.0237,-6.6803,7.591,-0.2867,2.0467,-3.5338
8348.0,-10.0237,-6.6803,7.591,-0.2867,2.0467,-3.5338
8354.0,-1.1685,-0.4644,5.4679,-0.2867,2.0467,-3.5338
8360.0,-1.1685,-0.4644,5.4679,-0.2898,2.3454,-3.8435
8363.0,-1.1685,-0.4644,5.4679,-0.2898,2.3454,-3.8435
8369.0,-1.1685,-0.4644,5.4679,-0.2898,2.3454,-3.8435
8373.0,-1.1685,-0.4644,5.4679,-0.2898,2.3454,-3.8435
8379.0,-1.1685,-0.4644,5.4679,-0.2898,2.3454,-3.8435
8383.0,0.9532,1.6044,5.5153,-0.2898,2.3454,-3.8435
8389.0,0.9532,1.6044,5.5153,-0.6124,3.2458,-2.6657
8394.0,0.9532,1.6044,5.5153,-0.6124,3.2458,-2.6657
8398.0,0.9532,1.6044,5.5153,-0.6124,3.2458,-2.6657
8404.0,0.9532,1.6044,5.5153,-0.6124,3.2458,-2.6657
8408.0,1.1926,1.857,5.2262,-0.6124,3.2458,-2.6657
8413.0,1.1926,1.857,5.2262,-0.6124,3.2458,-2.6657
8419.0,1.1926,1.857,5.2262,-0.6124,3.2458,-2.6657
8423.0,1.1926,1.857,5.2262,-0.7199,4.2745,-1.5643
8429.0,1.1926,1.857,5.2262,-0.7199,4.2745,-1.5643
8433.0,1.1926,1.857,5.2262,-0.7199,4.2745,-1.5643
8438.0,0.6467,1.3708,4.5485,-0.7199,4.2745,-1.5643
8443.0,0.6467,1.3708,4.5485,-0.7199,4.2745,-1.5643
8448.0,0.6467,1.3708,4.5485,-0.7199,4.2745,-1.5643
8453.0,0.6467,1.3708,4.5485,-0.4456,5.4138,-1.3163
8459.0,0.6467,1.3708,4.5485,-0.4456,5.4138,-1.3163
8463.0,-9.2383,-2.0231,3.5249,-0.4456,5.4138,-1.3163
8468.0,-9.2383,-2.0231,3.5249,-0.4456,5.4138,-1.3163
8473.0,-9.2383,-2.0231,3.5249,-0.4456,5.4138,-1.3163
8479.0,-9.2383,-2.0231,3.5249,-0.4456,5.4138,-1.3163
8483.0,-9.2383,-2.0231,3.5249,8.3717,-2.3418,-11.1122
8488.0,-50.1718,-44.4144,-10.1094,8.3717,-2.3418,-11.1122
8493.0,-50.1718,-44.4144,-10.1094,8.3717,-2.3418,-11.1122
8498.0,-50.1718,-44.4144,-10.1094,8.3717,-2.3418,-11.1122
8503.0,-50.1718,-44.4144,-10.1094,8.3717,-2.3418,-11.1122
8508.0,-50.1718,-44.4144,-10.1094,8.3717,-2.3418,-11.1122
8513.0,-50.1718,-44.4144,-10.1094,7.5599,-8.9001,-7.9748
8518.0,-34.0896,-29.6182,4.3163,7.5599,-8.9001,-7.9748
8523.0,-34.0896,-29.6182,4.3163,7.5599,-8.9001,-7.9748
8529.0,-34.0896,-29.6182,4.3163,7.5599,-8.9001,-7.9748
8533.0,-34.0896,-29.6182,4.3163,7.5599,-8.9001,-7.9748
8538.0,-34.0896,-29.6182,4.3163,7.5599,-8.9001,-7.9748
8543.0,-16.4126,-10.346,-3.342,2.6442,5.0802,3.8669
8548.0,-16.4126,-10.346,-3.342,2.6442,5.0802,3.8669
8553.0,-16.4126,-10.346,-3.342,2.6442,5.0802,3.8669
8558.0,-16.4126,-10.346,-3.342,2.6442,5.0802,3.8669
8563.0,-16.4126,-10.346,-3.342,2.6442,5.0802,3.8669
8568.0,-16.4126,-10.346,-3.342,2.6442,5.0802,3.8669
8573.0,-4.7221,-5.0596,5.7617,0.3351,8.0729,4.895
8578.0,-4.7221,-5.0596,5.7617,0.3351,8.0729,4.895
8584.0,-4.7221,-5.0596,5.7617,0.3351,8.0729,4.895
8589.0,-4.7221,-5.0596,5.7617,0.3351,8.0729,4.895
8593.0,-4.7221,-5.0596,5.7617,0.3351,8.0729,4.895
8598.0,2.093,-2.4045,2.8235,0.3351,8.0729,4.895
8603.0,2.093,-2.4045,2.8235,-2.2458,4.941,5.4808
8608.0,2.093,-2.4045,2.8235,-2.2458,4.941,5.4808
8614.0,2.093,-2.4045,2.8235,-2.2458,4.941,5.4808
8618.0,2.093,-2.4045,2.8235,-2.2458,4.941,5.4808
8624.0,5.8477,5.7944,3.6386,-2.2458,4.941,5.4808
8630.0,5.8477,5.7944,3.6386,-2.2458,4.941,5.4808
8633.0,5.8477,5.7944,3.6386,-5.955,-8.6326,3.5291
8638.0,5.8477,5.7944,3.6386,-5.955,-8.6326,3.5291
8643.0,5.8477,5.7944,3.6386,-5.955,-8.6326,3.5291
8648.0,5.8477,5.7944,3.6386,-5.955,-8.6326,3.5291
8653.0,21.3457,6.8622,25.7606,-5.955,-8.6326,3.5291
8661.0,21.3457,6.8622,25.7606,-5.955,-8.6326,3.5291
8663.0,21.3457,6.8622,25.7606,-5.955,-8.6326,3.5291
8668.0,21.3457,6.8622,25.7606,-7.5738,-10.1854,-1.3059
8674.0,21.3457,6.8622,25.7606,-7.5738,-10.1854,-1.3059
8678.0,15.5268,0.0838,12.785,-7.5738,-10.1854,-1.3059
8683.0,15.5268,0.0838,12.785,-7.5738,-10.1854,-1.3059
8688.0,15.5268,0.0838,12.785,-7.5738,-10.1854,-1.3059
8694.0,15.5268,0.0838,12.785,-7.5738,-10.1854,-1.3059
8698.0,15.5268,0.0838,12.785,-0.9825,11.7766,10.1393
8703.0,15.5268,0.0838,12.785,-0.9825,11.7766,10.1393
8708.0,11.4559,-12.2861,-7.0858,-0.9825,11.7766,10.1393
8713.0,11.4559,-12.2861,-7.0858,-0.9825,11.7766,10.1393
8718.0,11.4559,-12.2861,-7.0858,-0.9825,11.7766,10.1393
8723.0,11.4559,-12.2861,-7.0858,-0.9825,11.7766,10.1393
8728.0,11.4559,-12.2861,-7.0858,3.7664,12.9312,6.4081
8733.0,8.6734,-13.1918,-27.1605,3.7664,12.9312,6.4081
8738.0,8.6734,-13.1918,-27.1605,3.7664,12.9312,6.4081
8743.0,8.6734,-13.1918,-27.1605,3.7664,12.9312,6.4081
8748.0,8.6734,-13.1918,-27.1605,3.7664,12.9312,6.4081
8753.0,8.6734,-13.1918,-27.1605,3.7664,12.9312,6.4081
8759.0,-1.5708,-8.5394,-32.454,1.6026,0.3973,-2.8276
8764.0,-1.5708,-8.5394,-32.454,1.6026,0.3973,-2.8276
8768.0,-1.5708,-8.5394,-32.454,1.6026,0.3973,-2.8276
8774.0,-1.5708,-8.5394,-32.454,1.6026,0.3973,-2.8276
8778.0,-1.5708,-8.5394,-32.454,1.6026,0.3973,-2.8276
8783.0,-1.5708,-8.5394,-5.3466,1.6026,0.3973,-2.8276
8788.0,4.7223,-4.8785,-5.3466,1.6026,0.3973,-2.8276
8793.0,4.7223,-4.8785,-5.3466,0.698,-7.2483,-7.6413
8799.0,4.7223,-4.8785,-5.3466,0.698,-7.2483,-7.6413
8804.0,4.7223,-4.8785,-5.3466,0.698,-7.2483,-7.6413
8809.0,4.7223,-4.8785,-5.3466,0.698,-7.2483,-7.6413
8813.0,13.3812,-4.5639,13.8703,0.698,-7.2483,-7.6413
8818.0,13.3812,-4.5639,13.8703,0.698,-7.2483,-7.6413
8823.0,13.3812,-4.5639,13.8703,-2.1249,-10.0315,-4.3713
8829.0,13.3812,-4.5639,13.8703,-2.1249,-10.0315,-4.3713
8834.0,13.3812,-4.5639,13.8703,-2.1249,-10.0315,-4.3713
8838.0,8.6159,-6.2847,17.6236,-2.1249,-10.0315,-4.3713
8844.0,8.6159,-6.2847,17.6236,-2.1249,-10.0315,-4.3713
8849.0,8.6159,-6.2847,17.6236,-2.1249,-10.0315,-4.3713
8854.0,8.6159,-6.2847,17.6236,-5.9648,-5.219,1.57
8859.0,8.6159,-6.2847,17.6236,-5.9648,-5.219,1.57
8863.0,8.6159,-6.2847,17.6236,-5.9648,-5.219,1.57
8868.0,5.6131,-8.8921,7.0034,-5.9648,-5.219,1.57
8873.0,5.6131,-8.8921,7.0034,-5.9648,-5.219,1.57
8878.0,5.6131,-8.8921,7.0034,-5.9648,-5.219,1.57
8883.0,5.6131,-8.8921,7.0034,-6.6954,-3.2923,3.5389
8888.0,5.6131,-8.8921,7.0034,-6.6954,-3.2923,3.5389
8894.0,-12.1406,-34.7616,22.9977,-6.6954,-3.2923,3.5389
8899.0,-12.1406,-34.7616,22.9977,-6.6954,-3.2923,3.5389
8904.0,-12.1406,-34.7616,22.9977,-6.6954,-3.2923,3.5389
8908.0,-12.1406,-34.7616,22.9977,-6.6954,-3.2923,3.5389
8914.0,-12.1406,-34.7616,22.9977,-6.6954,-3.2923,3.5389
8918.0,-12.1406,-34.7616,22.9977,4.7725,3.5347,10.7704
8923.0,-35.8329,-62.471,17.9079,4.7725,3.5347,10.7704
8928.0,-35.8329,-62.471,17.9079,4.7725,3.5347,10.7704
8933.0,-35.8329,-62.471,17.9079,4.7725,3.5347,10.7704
8938.0,-35.8329,-62.471,17.9079,4.7725,3.5347,10.7704
8944.0,-35.8329,-62.471,17.9079,4.7725,3.5347,10.7704
8948.0,-35.6413,-8.0961,8.7142,6.9087,-5.2881,5.0557
8953.0,-35.6413,-8.0961,8.7142,6.9087,-5.2881,5.0557
8958.0,-35.6413,-8.0961,8.7142,6.9087,-5.2881,5.0557
8963.0,-35.6413,-8.0961,8.7142,6.9087,-5.2881,5.0557
8969.0,-35.6413,-8.0961,8.7142,6.9087,-5.2881,5.0557
8973.0,-24.5734,-5.1597,2.0605,6.9087,-5.2881,5.0557
8978.0,-24.5734,-5.1597,2.0605,-3.8145,-3.8721,-1.9119
8983.0,-24.5734,-5.1597,2.0605,-3.8145,-3.8721,-1.9119
8989.0,-24.5734,-5.1597,2.0605,-3.8145,-3.8721,-1.9119
8993.0,-24.5734,-5.1597,2.0605,-3.8145,-3.8721,-1.9119
8998.0,-9.9615,-10.999,-18.3316,-3.8145,-3.8721,-1.9119
9003.0,-9.9615,-10.999,-18.3316,-3.8145,-3.8721,-1.9119
9009.0,-9.9615,-10.999,-18.3316,1.5177,-1.4365,-4.152
9013.0,-9.9615,-10.999,-18.3316,1.5177,-1.4365,-4.152
9019.0,-9.9615,-10.999,-18.3316,1.5177,-1.4365,-4.152
9024.0,-9.5544,-3.2435,9.6098,1.5177,-1.4365,-4.152
9029.0,-9.5544,-3.2435,9.6098,1.5177,-1.4365,-4.152
9034.0,-9.5544,-3.2435,9.6098,1.5177,-1.4365,-4.152
9039.0,-9.5544,-3.2435,9.6098,1.1573,2.0473,-1.8899
9044.0,-9.5544,-3.2435,9.6098,1.1573,2.0473,-1.8899
9049.0,-9.5544,-3.2435,9.6098,1.1573,2.0473,-1.8899
9053.0,-1.3648,0.1219,4.994,1.1573,2.0473,-1.8899
9059.0,-1.3648,0.1219,4.994,1.1573,2.0473,-1.8899
9063.0,-1.3648,0.1219,4.994,1.1573,2.0473,-1.8899
9068.0,-1.3648,0.1219,4.994,1.1573,2.0473,-1.8899
9073.0,-1.3648,0.1219,4.994,0.3925,3.1108,-1.2607
9078.0,2.4522,1.5996,4.34,0.3925,3.1108,-1.2607
9083.0,2.4522,1.5996,4.34,0.3925,3.1108,-1.2607
9088.0,2.4522,1.5996,4.34,0.3925,3.1108,-1.2607
9093.0,2.4522,1.5996,4.34,0.3925,3.1108,-1.2607
9099.0,2.4522,1.5996,4.34,0.3925,3.1108,-1.2607
9104.0,2.3324,1.509,3.6434,-0.3802,4.0857,-0.6376
9109.0,2.3324,1.509,3.6434,-0.3802,4.0857,-0.6376
9114.0,2.3324,1.509,3.6434,-0.3802,4.0857,-0.6376
9118.0,2.3324,1.509,3.6434,-0.3802,4.0857,-0.6376
9124.0,2.3324,1.509,3.6434,-0.3802,4.0857,-0.6376
9128.0,2.3324,1.509,3.6434,-0.3802,4.0857,-0.6376
9133.0,1.6572,1.2421,2.3022,-0.4792,4.8634,-0.659
9139.0,1.6572,1.2421,2.3022,-0.4792,4.8634,-0.659
9143.0,1.6572,1.2421,2.3022,-0.4792,4.8634,-0.659
9148.0,1.6572,1.2421,2.3022,-0.4792,4.8634,-0.659
9153.0,1.6572,1.2421,2.3022,-0.4792,4.8634,-0.659
9158.0,-0.3399,0.1457,2.1364,-0.4792,4.8634,-0.659
9163.0,-0.3399,0.1457,2.1364,0.1977,6.0973,-1.7482
9169.0,-0.3399,0.1457,2.1364,0.1977,6.0973,-1.7482
9174.0,-0.3399,0.1457,2.1364,0.1977,6.0973,-1.7482
9178.0,-0.3399,0.1457,2.1364,0.1977,6.0973,-1.7482
9183.0,-19.3148,-8.0722,-27.6391,0.1977,6.0973,-1.7482
9188.0,-19.3148,-8.0722,-27.6391,0.1977,6.0973,-1.7482
9194.0,-19.3148,-8.0722,-27.6391,4.1561,6.1658,-10.5563
9198.0,-19.3148,-8.0722,-27.6391,4.1561,6.1658,-10.5563
9203.0,-19.3148,-8.0722,-27.6391,4.1561,6.1658,-10.5563
9208.0,-58.711,-25.7762,-15.0854,4.1561,6.1658,-10.5563
9214.0,-58.711,-25.7762,-15.0854,4.1561,6.1658,-10.5563
9218.0,-58.711,-25.7762,-15.0854,4.1561,6.1658,-10.5563
9224.0,-58.711,-25.7762,-15.0854,4.1561,6.1658,-10.5563
9228.0,-58.711,-25.7762,-15.0854,5.0468,-6.6509,-4.1104
9234.0,-58.711,-25.7762,-15.0854,5.0468,-6.6509,-4.1104
9238.0,-41.3069,-26.9917,0.8758,5.0468,-6.6509,-4.1104
9244.0,-41.3069,-26.9917,0.8758,5.0468,-6.6509,-4.1104
9248.0,-41.3069,-26.9917,0.8758,5.0468,-6.6509,-4.1104
9254.0,-41.3069,-26.9917,0.8758,5.0468,-6.6509,-4.1104
9258.0,-41.3069,-26.9917,0.8758,2.8006,5.8188,3.5059
9263.0,-41.3069,-26.9917,0.8758,2.8006,5.8188,3.5059
9269.0,-13.108,-13.0869,0.2786,2.8006,5.8188,3.5059
9273.0,-13.108,-13.0869,0.2786,2.8006,5.8188,3.5059
9278.0,-13.108,-13.0869,0.2786,2.8006,5.8188,3.5059
9284.0,-13.108,-13.0869,0.2786,2.8006,5.8188,3.5059
9288.0,-13.108,-13.0869,0.2786,0.3064,6.4242,4.512
9293.0,-3.0171,-5.4314,6.4489,0.3064,6.4242,4.512
9298.0,-3.0171,-5.4314,6.4489,0.3064,6.4242,4.512
9303.0,-3.0171,-5.4314,6.4489,0.3064,6.4242,4.512
9309.0,-3.0171,-5.4314,6.4489,0.3064,6.4242,4.512
9313.0,-3.0171,-5.4314,6.4489,0.3064,6.4242,4.512
9318.0,2.5719,-1.8563,2.3828,0.3064,6.4242,4.512
9324.0,2.5719,-1.8563,2.3828,-2.0815,2.685,4.7649
9328.0,2.5719,-1.8563,2.3828,-2.0815,2.685,4.7649
9333.0,2.5719,-1.8563,2.3828,-2.0815,2.685,4.7649
9338.0,2.5719,-1.8563,2.3828,-2.0815,2.685,4.7649
9344.0,15.158,5.8993,15.5811,-2.0815,2.685,4.7649
9349.0,15.158,5.8993,15.5811,-2.0815,2.685,4.7649
9353.0,15.158,5.8993,15.5811,-6.5335,-10.9245,3.5077
9359.0,15.158,5.8993,15.5811,-6.5335,-10.9245,3.5077
9363.0,15.158,5.8993,15.5811,-6.5335,-10.9245,3.5077
9368.0,15.158,5.8993,15.5811,-6.5335,-10.9245,3.5077
9373.0,23.065,0.489,22.4622,-6.5335,-10.9245,3.5077
9379.0,23.065,0.489,22.4622,-6.5335,-10.9245,3.5077
9383.0,23.065,0.489,22.4622,-5.4553,-6.0871,-1.0359
9388.0,23.065,0.489,22.4622,-5.4553,-6.0871,-1.0359
9393.0,23.065,0.489,22.4622,-5.4553,-6.0871,-1.0359
9399.0,23.065,0.489,22.4622,-5.4553,-6.0871,-1.0359
9404.0,12.1504,0.8179,21.8508,-5.4553,-6.0871,-1.0359
9408.0,12.1504,0.8179,21.8508,-5.4553,-6.0871,-1.0359
9413.0,12.1504,0.8179,21.8508,2.2141,12.8505,12.9164
9418.0,12.1504,0.8179,21.8508,2.2141,12.8505,12.9164
9423.0,12.1504,0.8179,21.8508,2.2141,12.8505,12.9164
9428.0,9.9569,-10.8132,-19.1041,2.2141,12.8505,12.9164
9433.0,9.9569,-10.8132,-19.1041,2.2141,12.8505,12.9164
9439.0,9.9569,-10.8132,-19.1041,2.2141,12.8505,12.9164
9443.0,9.9569,-10.8132,-19.1041,4.9961,5.5659,7.0532
9449.0,9.9569,-10.8132,-19.1041,4.9961,5.5659,7.0532
9453.0,2.3037,-8.0627,-34.9752,4.9961,5.5659,7.0532
9458.0,2.3037,-8.0627,-34.9752,4.9961,5.5659,7.0532
9463.0,2.3037,-8.0627,-34.9752,4.9961,5.5659,7.0532
9468.0,2.3037,-8.0627,-34.9752,4.9961,5.5659,7.0532
9474.0,2.3037,-8.0627,-34.9752,4.9961,5.5659,7.0532
9478.0,2.3037,-8.0627,-34.9752,1.6491,1.5311,-5.4476
9483.0,-0.316,-6.5373,-14.801,1.6491,1.5311,-5.4476
9489.0,-0.316,-6.5373,-14.801,1.6491,1.5311,-5.4476
9494.0,-0.316,-6.5373,-14.801,1.6491,1.5311,-5.4476
9498.0,-0.316,-6.5373,-14.801,1.6491,1.5311,-5.4476
9503.0,-0.316,-6.5373,-14.801,1.6491,1.5311,-5.4476
9508.0,5.8334,-4.0347,-2.5363,-1.0937,-5.96,-7.1794
9513.0,5.8334,-4.0347,-2.5363,-1.0937,-5.96,-7.1794
9518.0,5.8334,-4.0347,-2.5363,-1.0937,-5.96,-7.1794
9523.0,5.8334,-4.0347,-2.5363,-1.0937,-5.96,-7.1794
9528.0,5.8334,-4.0347,-2.5363,-1.0937,-5.96,-7.1794
9533.0,5.8334,-4.0347,-2.5363,-1.0937,-5.96,-7.1794
9539.0,12.8879,-4.4781,14.0219,-4.6013,-8.7566,-5.2644
9544.0,12.8879,-4.4781,14.0219,-4.6013,-8.7566,-5.2644
9549.0,12.8879,-4.4781,14.0219,-4.6013,-8.7566,-5.2644
9554.0,12.8879,-4.4781,14.0219,-4.6013,-8.7566,-5.2644
9559.0,12.8879,-4.4781,14.0219,-4.6013,-8.7566,-5.2644
9564.0,8.5489,-11.5758,17.9553,-4.6013,-8.7566,-5.2644
9569.0,8.5489,-11.5758,17.9553,-4.6013,-8.7566,-5.2644
9573.0,8.5489,-11.5758,17.9553,-7.1102,-4.2593,-0.8643
9578.0,8.5489,-11.5758,17.9553,-7.1102,-4.2593,-0.8643
9583.0,8.5489,-11.5758,17.9553,-7.1102,-4.2593,-0.8643
9591.0,4.0278,-20.1704,18.0975,-7.1102,-4.2593,-0.8643
9593.0,4.0278,-20.1704,18.0975,-7.1102,-4.2593,-0.8643
9598.0,4.0278,-20.1704,18.0975,-7.1102,-4.2593,-0.8643
9603.0,4.0278,-20.1704,18.0975,-6.2,-0.6754,3.5798
9609.0,4.0278,-20.1704,18.0975,-6.2,-0.6754,3.5798
9613.0,4.0278,-20.1704,18.0975,-6.2,-0.6754,3.5798
9619.0,-19.4681,-49.1001,21.4575,-6.2,-0.6754,3.5798
9623.0,-19.4681,-49.1001,21.4575,-6.2,-0.6754,3.5798
9629.0,-19.4681,-49.1001,21.4575,-6.2,-0.6754,3.5798
9633.0,-19.4681,-49.1001,21.4575,7.1714,6.0332,7.8785
9638.0,-19.4681,-49.1001,21.4575,7.1714,6.0332,7.8785
9643.0,-39.6116,-47.4556,-0.8824,7.1714,6.0332,7.8785
9649.0,-39.6116,-47.4556,-0.8824,7.1714,6.0332,7.8785
9654.0,-39.6116,-47.4556,-0.8824,7.1714,6.0332,7.8785
9660.0,-39.6116,-47.4556,-0.8824,7.1714,6.0332,7.8785
9664.0,-39.6116,-47.4556,-0.8824,9.0132,0.3723,1.8914
9669.0,-39.6116,-47.4556,-0.8824,9.0132,0.3723,1.8914
9674.0,-42.1451,1.1468,-8.8061,9.0132,0.3723,1.8914
9678.0,-42.1451,1.1468,-8.8061,9.0132,0.3723,1.8914
9684.0,-42.1451,1.1468,-8.8061,9.0132,0.3723,1.8914
9688.0,-42.1451,1.1468,-8.8061,9.0132,0.3723,1.8914
9693.0,-42.1451,1.1468,-8.8061,-5.5805,-20.0131,-1.3218
9698.0,-15.1147,-6.4801,-19.2747,-5.5805,-20.0131,-1.3218
9703.0,-15.1147,-6.4801,-19.2747,-5.5805,-20.0131,-1.3218
9708.0,-15.1147,-6.4801,-19.2747,-5.5805,-20.0131,-1.3218
9713.0,-15.1147,-6.4801,-19.2747,-5.5805,-20.0131,-1.3218
9719.0,-15.1147,-6.4801,-19.2747,-5.5805,-20.0131,-1.3218
9724.0,-15.1147,-6.4801,-19.2747,-5.5805,-20.0131,-1.3218
9729.0,-15.1482,-0.3309,6.1788,0.8311,2.0436,-0.2937
9733.0,-15.1482,-0.3309,6.1788,0.8311,2.0436,-0.2937
9738.0,-15.1482,-0.3309,6.1788,0.8311,2.0436,-0.2937
9743.0,-15.1482,-0.3309,6.1788,0.8311,2.0436,-0.2937
9748.0,-15.1482,-0.3309,6.1788,0.8311,2.0436,-0.2937
9754.0,-8.8887,-1.5036,5.1172,0.8311,2.0436,-0.2937
9758.0,-8.8887,-1.5036,5.1172,0.4481,4.3961,1.278
9763.0,-8.8887,-1.5036,5.1172,0.4481,4.3961,1.278
9768.0,-8.8887,-1.5036,5.1172,0.4481,4.3961,1.278
9774.0,-8.8887,-1.5036,5.1172,0.4481,4.3961,1.278
9778.0,-1.1541,1.6568,-4.4841,0.4481,4.3961,1.278
9784.0,-1.1541,1.6568,-4.4841,0.4481,4.3961,1.278
9788.0,-1.1541,1.6568,-4.4841,0.5923,2.3985,0.2646
9793.0,-1.1541,1.6568,-4.4841,0.5923,2.3985,0.2646
9799.0,-1.1541,1.6568,-4.4841,0.5923,2.3985,0.2646
9803.0,-1.1541,1.6568,-4.4841,0.5923,2.3985,0.2646
9809.0,2.5863,2.2813,0.4256,0.5923,2.3985,0.2646
9814.0,2.5863,2.2813,0.4256,0.5923,2.3985,0.2646
9818.0,2.5863,2.2813,0.4256,-0.1444,0.3979,-1.3676
9823.0,2.5863,2.2813,0.4256,-0.1444,0.3979,-1.3676
9828.0,2.5863,2.2813,0.4256,-0.1444,0.3979,-1.3676
9834.0,1.8631,1.9238,3.1695,-0.1444,0.3979,-1.3676
9838.0,1.8631,1.9238,3.1695,-0.1444,0.3979,-1.3676
9843.0,1.8631,1.9238,3.1695,-0.1444,0.3979,-1.3676
9849.0,1.8631,1.9238,3.1695,-0.2183,2.514,-1.8545
9853.0,1.8631,1.9238,3.1695,-0.2183,2.514,-1.8545
9859.0,1.9445,1.5376,4.7997,-0.2183,2.514,-1.8545
9864.0,1.9445,1.5376,4.7997,-0.2183,2.514,-1.8545
9869.0,1.9445,1.5376,4.7997,-0.2183,2.514,-1.8545
9873.0,1.9445,1.5376,4.7997,-0.2183,2.514,-1.8545
9878.0,1.9445,1.5376,4.7997,-0.1517,5.1658,-1.7916
9883.0,1.9445,1.5376,4.7997,-0.1517,5.1658,-1.7916
9888.0,0.9005,-0.6837,4.2405,-0.1517,5.1658,-1.7916
9893.0,0.9005,-0.6837,4.2405,-0.1517,5.1658,-1.7916
9898.0,0.9005,-0.6837,4.2405,-0.1517,5.1658,-1.7916
9904.0,0.9005,-0.6837,4.2405,-0.1517,5.1658,-1.7916
9908.0,0.9005,-0.6837,4.2405,0.6296,6.5946,-2.2332
9913.0,-0.6848,-0.5073,2.9989,0.6296,6.5946,-2.2332
9919.0,-0.6848,-0.5073,2.9989,0.6296,6.5946,-2.2332
9924.0,-0.6848,-0.5073,2.9989,0.6296,6.5946,-2.2332
9928.0,-0.6848,-0.5073,2.9989,0.6296,6.5946,-2.2332
9933.0,-0.6848,-0.5073,2.9989,0.6296,6.5946,-2.2332
9939.0,-58.9313,-46.9694,-55.1067,7.164,3.3814,-14.3523
9943.0,-58.9313,-46.9694,-55.1067,7.164,3.3814,-14.3523
9948.0,-58.9313,-46.9694,-55.1067,7.164,3.3814,-14.3523
9953.0,-58.9313,-46.9694,-55.1067,7.164,3.3814,-14.3523
9959.0,-58.9313,-46.9694,-55.1067,7.164,3.3814,-14.3523
9963.0,-58.9313,-46.9694,-55.1067,7.164,3.3814,-14.3523
9968.0,-59.5635,-20.8568,2.4491,7.164,3.3814,-14.3523
9973.0,-59.5635,-20.8568,2.4491,4.5562,-1.7224,-2.199
9978.0,-59.5635,-20.8568,2.4491,4.5562,-1.7224,-2.199
9983.0,-59.5635,-20.8568,2.4491,4.5562,-1.7224,-2.199
9988.0,-59.5635,-20.8568,2.4491,4.5562,-1.7224,-2.199
9993.0,-17.0016,-15.4846,-3.8822,4.5562,-1.7224,-2.199
9998.0,-17.0016,-15.4846,-3.8822,4.5562,-1.7224,-2.199
10003.0,-17.0016,-15.4846,-3.8822,1.957,6.4046,3.9824
10009.0,-17.0016,-15.4846,-3.8822,1.957,6.4046,3.9824
10013.0,-17.0016,-15.4846,-3.8822,1.957,6.4046,3.9824
10018.0,-5.6847,-6.6422,7.0887,1.957,6.4046,3.9824
10024.0,-5.6847,-6.6422,7.0887,1.957,6.4046,3.9824
10029.0,-5.6847,-6.6422,7.0887,1.957,6.4046,3.9824
10033.0,-5.6847,-6.6422,7.0887,-0.583,7.8414,4.9848
10041.0,-5.6847,-6.6422,7.0887,-0.583,7.8414,4.9848
10044.0,-5.6847,-6.6422,7.0887,-0.583,7.8414,4.9848
10048.0,1.1591,-3.9632,3.9182,-0.583,7.8414,4.9848
10063.0,1.1591,-3.9632,3.9182,-0.583,7.8414,4.9848
10064.0,1.1591,-3.9632,3.9182,-0.583,7.8414,4.9848
10065.0,1.1591,-3.9632,3.9182,-0.583,7.8414,4.9848
10068.0,1.1591,-3.9632,3.9182,-3.5421,-2.0413,4.0984
10073.0,1.1591,-3.9632,3.9182,-3.5421,-2.0413,4.0984
10079.0,7.3085,4.2738,4.2594,-3.5421,-2.0413,4.0984
10083.0,7.3085,4.2738,4.2594,-3.5421,-2.0413,4.0984
10088.0,7.3085,4.2738,4.2594,-3.5421,-2.0413,4.0984
10093.0,7.3085,4.2738,4.2594,-3.5421,-2.0413,4.0984
10099.0,7.3085,4.2738,4.2594,-7.721,-10.2404,0.8987
10103.0,23.8696,2.2717,31.5517,-7.721,-10.2404,0.8987
10108.0,23.8696,2.2717,31.5517,-7.721,-10.2404,0.8987
10113.0,23.8696,2.2717,31.5517,-7.721,-10.2404,0.8987
10119.0,23.8696,2.2717,31.5517,-7.721,-10.2404,0.8987
10123.0,23.8696,2.2717,31.5517,-7.721,-10.2404,0.8987
10128.0,13.5967,9.4267,39.4896,-7.721,-10.2404,0.8987
10133.0,13.5967,9.4267,39.4896,-0.8689,0.704,1.4008
10138.0,13.5967,9.4267,39.4896,-0.8689,0.704,1.4008
10143.0,13.5967,9.4267,39.4896,-0.8689,0.704,1.4008
10149.0,13.5967,9.4267,39.4896,-0.8689,0.704,1.4008
10153.0,9.9617,-8.9922,-16.7251,-0.8689,0.704,1.4008
10158.0,9.9617,-8.9922,-16.7251,5.205,6.3484,12.493
10163.0,9.9617,-8.9922,-16.7251,5.205,6.3484,12.493
10168.0,9.9617,-8.9922,-16.7251,5.205,6.3484,12.493
10173.0,9.9617,-8.9922,-16.7251,5.205,6.3484,12.493
10178.0,9.9617,-8.9922,-16.7251,5.205,6.3484,12.493
10183.0,1.9014,-8.015,-44.3111,5.205,6.3484,12.493
10188.0,1.9014,-8.015,-44.3111,5.205,6.3484,12.493
10193.0,1.9014,-8.015,-44.3111,2.9997,5.7846,-2.692
10198.0,1.9014,-8.015,-44.3111,2.9997,5.7846,-2.692
10203.0,1.9014,-8.015,-44.3111,2.9997,5.7846,-2.692
10208.0,1.1495,-6.2704,-10.3558,2.9997,5.7846,-2.692
10214.0,1.1495,-6.2704,-10.3558,2.9997,5.7846,-2.692
10218.0,1.1495,-6.2704,-10.3558,2.9997,5.7846,-2.692
10223.0,1.1495,-6.2704,-10.3558,-0.5751,-1.8232,-5.5857
10228.0,1.1495,-6.2704,-10.3558,-0.5751,-1.8232,-5.5857
10233.0,2.9072,-5.7508,-6.4413,-0.5751,-1.8232,-5.5857
10239.0,2.9072,-5.7508,-6.4413,-0.5751,-1.8232,-5.5857
10244.0,2.9072,-5.7508,-6.4413,-0.5751,-1.8232,-5.5857
10249.0,2.9072,-5.7508,-6.4413,-0.5751,-1.8232,-5.5857
10254.0,2.9072,-5.7508,-6.4413,-0.5751,-1.8232,-5.5857
10259.0,2.9072,-5.7508,-6.4413,-0.5751,-1.8232,-5.5857
10263.0,2.9072,-5.7508,-6.4413,-0.5751,-1.8232,-5.5857
10268.0,2.9072,-5.7508,-6.4413,-0.5751,-1.8232,-5.5857
10273.0,2.9072,-5.7508,-6.4413,-0.5751,-1.8232,-5.5857
10279.0,2.9072,-5.7508,-6.4413,-0.5751,-1.8232,-5.5857
10284.0,2.9072,-5.7508,-6.4413,-0.5751,-1.8232,-5.5857
10289.0,10.3113,-9.9122,-0.4085,-1.8628,-10.9135,-7.7799
10293.0,10.3113,-9.9122,-0.4085,-1.8628,-10.9135,-7.7799
10298.0,10.3113,-9.9122,-0.4085,-1.8628,-10.9135,-7.7799
10303.0,10.3113,-9.9122,-0.4085,-1.8628,-10.9135,-7.7799
10308.0,10.3113,-9.9122,-0.4085,-1.8628,-10.9135,-7.7799
10313.0,4.5403,-13.1441,7.9038,-1.8628,-10.9135,-7.7799
10318.0,4.5403,-13.1441,7.9038,-6.966,-1.4512,3.6226
10323.0,4.5403,-13.1441,7.9038,-6.966,-1.4512,3.6226
10329.0,4.5403,-13.1441,7.9038,-6.966,-1.4512,3.6226
10333.0,4.5403,-13.1441,7.9038,-6.966,-1.4512,3.6226
10338.0,4.5403,-13.1441,7.9038,-6.966,-1.4512,3.6226
10343.0,-11.8436,-38.1031,25.0876,-6.966,-1.4512,3.6226
10348.0,-11.8436,-38.1031,25.0876,-1.6441,2.9147,4.9665
10353.0,-11.8436,-38.1031,25.0876,-1.6441,2.9147,4.9665
10358.0,-11.8436,-38.1031,25.0876,-1.6441,2.9147,4.9665
10364.0,-11.8436,-38.1031,25.0876,-1.6441,2.9147,4.9665
10369.0,-35.1384,-57.5326,19.1875,-1.6441,2.9147,4.9665
10373.0,-35.1384,-57.5326,19.1875,-1.6441,2.9147,4.9665
10378.0,-35.1384,-57.5326,19.1875,5.4835,4.7858,2.7191
10383.0,-35.1384,-57.5326,19.1875,5.4835,4.7858,2.7191
10388.0,-35.1384,-57.5326,19.1875,5.4835,4.7858,2.7191
10393.0,-45.0761,-25.6618,-24.5303,5.4835,4.7858,2.7191
10399.0,-45.0761,-25.6618,-24.5303,5.4835,4.7858,2.7191
10403.0,-45.0761,-25.6618,-24.5303,5.4835,4.7858,2.7191
10408.0,-45.0761,-25.6618,-24.5303,5.4835,4.7858,2.7191
10414.0,-45.0761,-25.6618,-24.5303,5.4835,4.7858,2.7191
10419.0,-45.0761,-25.6618,-24.5303,5.4835,4.7858,2.7191
10424.0,-21.5322,-0.7266,-38.6954,1.5336,-19.6533,-0.7201
10429.0,-21.5322,-0.7266,-38.6954,1.5336,-19.6533,-0.7201
10433.0,-21.5322,-0.7266,-38.6954,1.5336,-19.6533,-0.7201
10438.0,-21.5322,-0.7266,-38.6954,1.5336,-19.6533,-0.7201
10443.0,-21.5322,-0.7266,-38.6954,1.5336,-19.6533,-0.7201
10448.0,-16.1923,0.1362,11.4391,1.5336,-19.6533,-0.7201
10453.0,-16.1923,0.1362,11.4391,0.1732,2.8799,1.4326
10458.0,-16.1923,0.1362,11.4391,0.1732,2.8799,1.4326
10463.0,-16.1923,0.1362,11.4391,0.1732,2.8799,1.4326
10469.0,-16.1923,0.1362,11.4391,0.1732,2.8799,1.4326
10474.0,-16.1923,0.1362,11.4391,0.1732,2.8799,1.4326
10478.0,-7.1646,-1.5894,1.1696,0.1732,2.8799,1.4326
10484.0,-7.1646,-1.5894,1.1696,0.6216,4.9563,2.1461
10488.0,-7.1646,-1.5894,1.1696,0.6216,4.9563,2.1461
10493.0,-7.1646,-1.5894,1.1696,0.6216,4.9563,2.1461
10498.0,-7.1646,-1.5894,1.1696,0.6216,4.9563,2.1461
10504.0,-0.747,0.9752,-12.9718,0.6216,4.9563,2.1461
10508.0,-0.747,0.9752,-12.9718,0.6216,4.9563,2.1461
10513.0,-0.747,0.9752,-12.9718,0.6216,4.9563,2.1461
10518.0,-0.747,0.9752,-12.9718,0.3864,-0.4493,-0.9278
10523.0,-0.747,0.9752,-12.9718,0.3864,-0.4493,-0.9278
10528.0,3.3717,1.8904,-0.8445,0.3864,-0.4493,-0.9278
10533.0,3.3717,1.8904,-0.8445,0.3864,-0.4493,-0.9278
10538.0,3.3717,1.8904,-0.8445,0.3864,-0.4493,-0.9278
10544.0,3.3717,1.8904,-0.8445,0.3864,-0.4493,-0.9278
10548.0,3.3717,1.8904,-0.8445,-0.6545,1.7944,-3.6254
10553.0,3.3717,1.8904,-0.8445,-0.6545,1.7944,-3.6254
10558.0,1.4321,0.8131,4.8234,-0.6545,1.7944,-3.6254
10563.0,1.4321,0.8131,4.8234,-0.6545,1.7944,-3.6254
10568.0,1.4321,0.8131,4.8234,-0.6545,1.7944,-3.6254
10573.0,1.4321,0.8131,4.8234,-0.6545,1.7944,-3.6254
10578.0,1.4321,0.8131,4.8234,-0.9257,3.6386,-2.422
10583.0,1.3411,0.8322,4.4822,-0.9257,3.6386,-2.422
10588.0,1.3411,0.8322,4.4822,-0.9257,3.6386,-2.422
10593.0,1.3411,0.8322,4.4822,-0.9257,3.6386,-2.422
10598.0,1.3411,0.8322,4.4822,-0.9257,3.6386,-2.422
10603.0,1.3411,0.8322,4.4822,-0.9257,3.6386,-2.422
10609.0,1.3411,0.8322,4.4822,-0.9257,3.6386,-2.422
10613.0,1.0777,-0.207,3.4444,-0.7699,5.225,-1.3976
10618.0,1.0777,-0.207,3.4444,-0.7699,5.225,-1.3976
10623.0,1.0777,-0.207,3.4444,-0.7699,5.225,-1.3976
10628.0,1.0777,-0.207,3.4444,-0.7699,5.225,-1.3976
10634.0,1.0777,-0.207,3.4444,-0.7699,5.225,-1.3976
10638.0,0.3449,-0.6837,2.6624,-0.7699,5.225,-1.3976
10644.0,0.3449,-0.6837,2.6624,-0.1377,6.1407,-2.3151
10648.0,0.3449,-0.6837,2.6624,-0.1377,6.1407,-2.3151
10653.0,0.3449,-0.6837,2.6624,-0.1377,6.1407,-2.3151
10658.0,0.3449,-0.6837,2.6624,-0.1377,6.1407,-2.3151
10664.0,0.3449,-0.6837,2.6624,-0.1377,6.1407,-2.3151
10669.0,-52.3317,-58.4431,-25.1606,14.5159,-7.9343,-13.1208
10674.0,-52.3317,-58.4431,-25.1606,14.5159,-7.9343,-13.1208
10678.0,-52.3317,-58.4431,-25.1606,14.5159,-7.9343,-13.1208
10683.0,-52.3317,-58.4431,-25.1606,14.5159,-7.9343,-13.1208
10688.0,-52.3317,-58.4431,-25.1606,14.5159,-7.9343,-13.1208
10693.0,-43.0167,-15.3511,3.0747,14.5159,-7.9343,-13.1208
10698.0,-43.0167,-15.3511,3.0747,14.5159,-7.9343,-13.1208
10704.0,-43.0167,-15.3511,3.0747,4.4212,-0.0309,-1.5851
10708.0,-43.0167,-15.3511,3.0747,4.4212,-0.0309,-1.5851
10713.0,-43.0167,-15.3511,3.0747,4.4212,-0.0309,-1.5851
10719.0,-14.0036,-15.6562,-5.7968,4.4212,-0.0309,-1.5851
10723.0,-14.0036,-15.6562,-5.7968,4.4212,-0.0309,-1.5851
10728.0,-14.0036,-15.6562,-5.7968,4.4212,-0.0309,-1.5851
10734.0,-14.0036,-15.6562,-5.7968,1.9118,6.4816,3.4919
10738.0,-14.0036,-15.6562,-5.7968,1.9118,6.4816,3.4919
10743.0,-14.0036,-15.6562,-5.7968,1.9118,6.4816,3.4919
10748.0,-6.4558,-7.5526,6.1551,1.9118,6.4816,3.4919
10754.0,-6.4558,-7.5526,6.1551,1.9118,6.4816,3.4919
10758.0,-6.4558,-7.5526,6.1551,1.9118,6.4816,3.4919
10763.0,-6.4558,-7.5526,6.1551,-0.5415,7.4529,4.0428
10769.0,-6.4558,-7.5526,6.1551,-0.5415,7.4529,4.0428
10773.0,-6.4558,-4.1205,5.2736,-0.5415,7.4529,4.0428
10778.0,1.6763,-4.1205,5.2736,-0.5415,7.4529,4.0428
10783.0,1.6763,-4.1205,5.2736,-0.5415,7.4529,4.0428
10789.0,1.6763,-4.1205,5.2736,-0.5415,7.4529,4.0428
10794.0,1.6763,-4.1205,5.2736,-3.1939,1.0198,4.3739
10799.0,6.3315,3.6493,2.8046,-3.1939,1.0198,4.3739
10803.0,6.3315,3.6493,2.8046,-3.1939,1.0198,4.3739
10808.0,6.3315,3.6493,2.8046,-3.1939,1.0198,4.3739
10813.0,6.3315,3.6493,2.8046,-3.1939,1.0198,4.3739
10819.0,6.3315,3.6493,2.8046,-3.1939,1.0198,4.3739
10824.0,6.3315,3.6493,2.8046,-6.3289,-11.2465,1.4179
10828.0,20.0286,5.8707,25.3767,-6.3289,-11.2465,1.4179
10833.0,20.0286,5.8707,25.3767,-6.3289,-11.2465,1.4179
10838.0,20.0286,5.8707,25.3767,-6.3289,-11.2465,1.4179
10843.0,20.0286,5.8707,25.3767,-6.3289,-11.2465,1.4179
10849.0,20.0286,5.8707,25.3767,-6.3289,-11.2465,1.4179
10853.0,20.0286,5.8707,25.3767,-6.3289,-11.2465,1.4179
10859.0,15.6992,2.1287,17.979,-2.2281,-3.4212,-1.2888
10863.0,15.6992,2.1287,17.979,-2.2281,-3.4212,-1.2888
10868.0,15.6992,2.1287,17.979,-2.2281,-3.4212,-1.2888
10873.0,15.6992,2.1287,17.979,-2.2281,-3.4212,-1.2888
10878.0,15.6992,2.1287,17.979,-2.2281,-3.4212,-1.2888
10884.0,10.2538,-6.6946,-10.896,-2.2281,-3.4212,-1.2888
10889.0,10.2538,-6.6946,-10.896,4.7511,6.7663,12.0959
10893.0,10.2538,-6.6946,-10.896,4.7511,6.7663,12.0959
10898.0,10.2538,-6.6946,-10.896,4.7511,6.7663,12.0959
10904.0,10.2538,-6.6946,-10.896,4.7511,6.7663,12.0959
10909.0,0.479,-7.5097,-16.7109,4.7511,6.7663,12.0959
10914.0,0.479,-7.5097,-16.7109,4.7511,6.7663,12.0959
10918.0,0.479,-7.5097,-16.7109,4.2294,7.616,4.3312
10923.0,0.479,-7.5097,-16.7109,4.2294,7.616,4.3312
10928.0,0.479,-7.5097,-16.7109,4.2294,7.616,4.3312
10933.0,-2.088,-6.3419,-30.9138,4.2294,7.616,4.3312
10938.0,-2.088,-6.3419,-30.9138,4.2294,7.616,4.3312
10943.0,-2.088,-6.3419,-30.9138,4.2294,7.616,4.3312
10948.0,-2.088,-6.3419,-30.9138,1.296,0.7522,-5.8264
10953.0,-2.088,-6.3419,-30.9138,1.296,0.7522,-5.8264
10959.0,-2.088,-6.3419,-30.9138,1.296,0.7522,-5.8264
10963.0,1.3076,-6.2561,-10.1473,1.296,0.7522,-5.8264
10968.0,1.3076,-6.2561,-10.1473,1.296,0.7522,-5.8264
10974.0,1.3076,-6.2561,-10.1473,1.296,0.7522,-5.8264
10978.0,1.3076,-6.2561,-10.1473,1.296,0.7522,-5.8264
10984.0,1.3076,-6.2561,-10.1473,-0.6844,-8.5324,-7.5606
10988.0,12.5191,-5.2169,6.5105,-0.6844,-8.5324,-7.5606
10993.0,12.5191,-5.2169,6.5105,-0.6844,-8.5324,-7.5606
10998.0,12.5191,-5.2169,6.5105,-0.6844,-8.5324,-7.5606
11004.0,12.5191,-5.2169,6.5105,-0.6844,-8.5324,-7.5606
