time in milliseconds,acceleration_x,acceleration_y,acceleration_z,Roll,Pitch,Yaw
5.0,1.1438,3.5293,5.5802,-2.1049,-0.0735,1.5708
9.0,1.1438,3.5293,5.5802,-2.1049,-0.0735,1.5708
14.0,1.1438,3.5293,5.5802,-1.6101,1.8062,-0.34
20.0,1.1438,3.5293,5.5802,-1.6101,1.8062,-0.34
25.0,1.1438,3.5293,5.5802,-1.6101,1.8062,-0.34
29.0,-8.2192,-3.8401,11.0681,-1.6101,1.8062,-0.34
34.0,-8.2192,-3.8401,11.0681,-1.6101,1.8062,-0.34
40.0,-8.2192,-3.8401,11.0681,-1.6101,1.8062,-0.34
45.0,-8.2192,-3.8401,11.0681,-0.0939,0.3737,-0.0046
50.0,-8.2192,-3.8401,11.0681,-0.0939,0.3737,-0.0046
54.0,-2.362,3.1814,11.5088,-0.0939,0.3737,-0.0046
60.0,-2.362,3.1814,11.5088,-0.0939,0.3737,-0.0046
65.0,-2.362,3.1814,11.5088,-0.0939,0.3737,-0.0046
70.0,-2.362,3.1814,11.5088,-0.0939,0.3737,-0.0046
74.0,-2.362,3.1814,11.5088,-0.2246,0.6736,0.2153
79.0,-2.362,3.1814,11.5088,-0.2246,0.6736,0.2153
85.0,-2.9798,2.3567,10.8216,-0.2246,0.6736,0.2153
90.0,-2.9798,2.3567,10.8216,-0.2246,0.6736,0.2153
94.0,-2.9798,2.3567,10.8216,-0.2246,0.6736,0.2153
99.0,-2.9798,2.3567,10.8216,-0.2246,0.6736,0.2153
105.0,-2.9798,2.3567,10.8216,-0.2246,0.6736,0.2153
110.0,-3.5784,0.8695,10.0492,-0.5319,1.571,0.2031
115.0,-3.5784,0.8695,10.0492,-0.5319,1.571,0.2031
119.0,-3.5784,0.8695,10.0492,-0.5319,1.571,0.2031
124.0,-3.5784,0.8695,10.0492,-0.5319,1.571,0.2031
129.0,-3.5784,0.8695,10.0492,-0.5319,1.571,0.2031
135.0,-6.6148,-0.9658,5.1205,-0.5117,0.8789,0.9062
140.0,-6.6148,-0.9658,5.1205,-0.5117,0.8789,0.9062
145.0,-6.6148,-0.9658,5.1205,-0.5117,0.8789,0.9062
149.0,-6.6148,-0.9658,5.1205,-0.5117,0.8789,0.9062
155.0,-6.6148,-0.9658,5.1205,-0.5117,0.8789,0.9062
160.0,-6.6148,-0.9658,5.1205,-0.5117,0.8789,0.9062
165.0,-4.9673,3.0717,7.7934,-0.5117,0.8789,0.9062
169.0,-4.9673,3.0717,7.7934,-0.3956,0.2631,0.4242
174.0,-4.9673,3.0717,7.7934,-0.3956,0.2631,0.4242
180.0,-4.9673,3.0717,7.7934,-0.3956,0.2631,0.4242
185.0,-4.9673,3.0717,7.7934,-0.3956,0.2631,0.4242
190.0,-4.9529,2.3424,7.1015,-0.3956,0.2631,0.4242
194.0,-4.9529,2.3424,7.1015,-0.3956,0.2631,0.4242
199.0,-4.9529,2.3424,7.1015,-0.5801,-0.0319,0.5745
205.0,-4.9529,2.3424,7.1015,-0.5801,-0.0319,0.5745
210.0,-4.9529,2.3424,7.1015,-0.5801,-0.0319,0.5745
215.0,-5.1205,2.5664,6.1063,-0.5801,-0.0319,0.5745
219.0,-5.1205,2.5664,6.1063,-0.5801,-0.0319,0.5745
224.0,-5.1205,2.5664,6.1063,-0.5801,-0.0319,0.5745
230.0,-5.1205,2.5664,6.1063,-0.5801,-0.0319,0.5745
235.0,-5.1205,2.5664,6.1063,-0.2961,-0.8035,0.8146
240.0,-5.1205,2.5664,6.1063,-0.2961,-0.8035,0.8146
244.0,-5.7383,1.6321,5.5092,-0.2961,-0.8035,0.8146
249.0,-5.7383,1.6321,5.5092,-0.2961,-0.8035,0.8146
255.0,-5.7383,1.6321,5.5092,-0.2961,-0.8035,0.8146
260.0,-5.7383,1.6321,5.5092,-0.2961,-0.8035,0.8146
265.0,-5.7383,1.6321,5.5092,-0.4946,-1.1333,0.9441
269.0,-5.3744,3.7867,9.8406,-0.4946,-1.1333,0.9441
274.0,-5.3744,3.7867,9.8406,-0.4946,-1.1333,0.9441
280.0,-5.3744,3.7867,9.8406,-0.4946,-1.1333,0.9441
285.0,-5.3744,3.7867,9.8406,-0.4946,-1.1333,0.9441
289.0,-5.3744,3.7867,9.8406,-0.4946,-1.1333,0.9441
294.0,-5.3744,3.7867,9.8406,-3.6779,-0.8157,1.7321
300.0,-6.8159,4.8879,3.3718,-3.6779,-0.8157,1.7321
305.0,-6.8159,4.8879,3.3718,-3.6779,-0.8157,1.7321
310.0,-6.8159,4.8879,3.3718,-3.6779,-0.8157,1.7321
315.0,-6.8159,4.8879,3.3718,-3.6779,-0.8157,1.7321
319.0,-6.8159,4.8879,3.3718,-3.6779,-0.8157,1.7321
325.0,-3.3102,1.5797,7.8029,-2.2869,-1.0771,3.2678
330.0,-3.3102,1.5797,7.8029,-2.2869,-1.0771,3.2678
335.0,-3.3102,1.5797,7.8029,-2.2869,-1.0771,3.2678
340.0,-3.3102,1.5797,7.8029,-2.2869,-1.0771,3.2678
344.0,-3.3102,1.5797,7.8029,-2.2869,-1.0771,3.2678
349.0,-4.8907,2.4234,7.5422,-2.2869,-1.0771,3.2678
355.0,-4.8907,2.4234,7.5422,-0.02,0.0976,-0.8659
360.0,-4.8907,2.4234,7.5422,-0.02,0.0976,-0.8659
365.0,-4.8907,2.4234,7.5422,-0.02,0.0976,-0.8659
369.0,-4.8907,2.4234,7.5422,-0.02,0.0976,-0.8659
375.0,-4.8907,2.4234,7.5422,-0.02,0.0976,-0.8659
380.0,-7.1751,3.0956,7.2247,-0.02,0.0976,-0.8659
385.0,-7.1751,3.0956,7.2247,-0.02,0.0976,-0.8659
389.0,-7.1751,3.0956,7.2247,-0.0597,-0.8456,-1.8861
394.0,-7.1751,3.0956,7.2247,-0.0597,-0.8456,-1.8861
399.0,-7.1751,3.0956,7.2247,-0.0597,-0.8456,-1.8861
405.0,-6.4232,1.6608,8.3384,-0.0597,-0.8456,-1.8861
410.0,-6.4232,1.6608,8.3384,-0.0597,-0.8456,-1.8861
414.0,-6.4232,1.6608,8.3384,-0.0597,-0.8456,-1.8861
419.0,-6.4232,1.6608,8.3384,-0.7982,-1.3936,-1.2068
425.0,-6.4232,1.6608,8.3384,-0.7982,-1.3936,-1.2068
430.0,-5.2546,1.656,9.1724,-0.7982,-1.3936,-1.2068
435.0,-5.2546,1.656,9.1724,-0.7982,-1.3936,-1.2068
440.0,-5.2546,1.656,9.1724,-0.7982,-1.3936,-1.2068
444.0,-5.2546,1.656,9.1724,-0.7982,-1.3936,-1.2068
449.0,-5.2546,1.656,9.1724,-0.6327,-1.9879,-1.1787
455.0,-5.2546,1.656,9.1724,-0.6327,-1.9879,-1.1787
460.0,-4.8284,0.021,8.8454,-0.6327,-1.9879,-1.1787
465.0,-4.8284,0.021,8.8454,-0.6327,-1.9879,-1.1787
469.0,-4.8284,0.021,8.8454,-0.6327,-1.9879,-1.1787
475.0,-4.8284,0.021,8.8454,-0.6327,-1.9879,-1.1787
480.0,-4.8284,0.021,8.8454,-0.6327,-1.9879,-1.1787
485.0,-3.0803,0.3117,9.3715,-0.7017,-1.994,-0.9313
489.0,-3.0803,0.3117,9.3715,-0.7017,-1.994,-0.9313
494.0,-3.0803,0.3117,9.3715,-0.7017,-1.994,-0.9313
500.0,-3.0803,0.3117,9.3715,-0.7017,-1.994,-0.9313
507.0,-3.0803,0.3117,9.3715,-0.7017,-1.994,-0.9313
509.0,-3.0803,0.3117,9.3715,-0.7017,-1.994,-0.9313
514.0,-2.0698,0.6835,8.7649,-0.7494,-1.0362,-0.522
520.0,-2.0698,0.6835,8.7649,-0.7494,-1.0362,-0.522
524.0,-2.0698,0.6835,8.7649,-0.7494,-1.0362,-0.522
529.0,-2.0698,0.6835,8.7649,-0.7494,-1.0362,-0.522
535.0,-2.0698,0.6835,8.7649,-0.7494,-1.0362,-0.522
540.0,-2.0171,-0.2793,9.3004,-0.7494,-1.0362,-0.522
545.0,-2.0171,-0.2793,9.3004,-0.6693,-1.294,0.9453
549.0,-2.0171,-0.2793,9.3004,-0.6693,-1.294,0.9453
554.0,-2.0171,-0.2793,9.3004,-0.6693,-1.294,0.9453
560.0,-2.0171,-0.2793,9.3004,-0.6693,-1.294,0.9453
565.0,-2.0171,-0.2793,9.3004,-0.6693,-1.294,0.9453
570.0,-1.1599,-0.0458,9.5942,-0.6693,-1.294,0.9453
575.0,-1.1599,-0.0458,9.5942,-0.7994,-1.2109,1.7022
579.0,-1.1599,-0.0458,9.5942,-0.7994,-1.2109,1.7022
584.0,-1.1599,-0.0458,9.5942,-0.7994,-1.2109,1.7022
590.0,-1.1599,-0.0458,9.5942,-0.7994,-1.2109,1.7022
595.0,-0.4319,0.9505,8.945,-0.7994,-1.2109,1.7022
600.0,-0.4319,0.9505,8.945,-0.7994,-1.2109,1.7022
604.0,-0.4319,0.9505,8.945,-0.7994,-1.2109,1.7022
609.0,-0.4319,0.9505,8.945,-0.6192,-0.0545,0.8121
615.0,-0.4319,0.9505,8.945,-0.6192,-0.0545,0.8121
620.0,-0.5325,1.9182,6.5043,-0.6192,-0.0545,0.8121
624.0,-0.5325,1.9182,6.5043,-0.6192,-0.0545,0.8121
629.0,-0.5325,1.9182,6.5043,-0.6192,-0.0545,0.8121
634.0,-0.5325,1.9182,6.5043,-0.6192,-0.0545,0.8121
640.0,-0.5325,1.9182,6.5043,-0.0627,-0.0967,-0.0718
645.0,-1.7633,0.7693,7.8455,-0.0627,-0.0967,-0.0718
650.0,-1.7633,0.7693,7.8455,-0.0627,-0.0967,-0.0718
654.0,-1.7633,0.7693,7.8455,-0.0627,-0.0967,-0.0718
660.0,-1.7633,0.7693,7.8455,-0.0627,-0.0967,-0.0718
665.0,-1.7633,0.7693,7.8455,-0.0627,-0.0967,-0.0718
670.0,-1.7633,0.7693,7.8455,0.1156,-0.7082,0.8341
675.0,-2.1321,1.4796,6.4712,0.1156,-0.7082,0.8341
679.0,-2.1321,1.4796,6.4712,0.1156,-0.7082,0.8341
684.0,-2.1321,1.4796,6.4712,0.1156,-0.7082,0.8341
690.0,-2.1321,1.4796,6.4712,0.1156,-0.7082,0.8341
695.0,-2.1321,1.4796,6.4712,0.1156,-0.7082,0.8341
700.0,-2.1321,1.4796,6.4712,0.1156,-0.7082,0.8341
704.0,-2.0746,2.8286,7.4948,-0.6571,-0.5524,1.6283
710.0,-2.0746,2.8286,7.4948,-0.6571,-0.5524,1.6283
715.0,-2.0746,2.8286,7.4948,-0.6571,-0.5524,1.6283
719.0,-2.0746,2.8286,7.4948,-0.6571,-0.5524,1.6283
725.0,-2.0746,2.8286,7.4948,-0.6571,-0.5524,1.6283
730.0,0.0375,1.3175,4.7556,-0.6571,-0.5524,1.6283
735.0,0.0375,1.3175,4.7556,-1.6033,1.0084,0.9221
739.0,0.0375,1.3175,4.7556,-1.6033,1.0084,0.9221
744.0,0.0375,1.3175,4.7556,-1.6033,1.0084,0.9221
750.0,0.0375,1.3175,4.7556,-1.6033,1.0084,0.9221
755.0,-1.1455,-0.532,5.0684,-1.6033,1.0084,0.9221
760.0,-1.1455,-0.532,5.0684,-1.6033,1.0084,0.9221
764.0,-1.1455,-0.532,5.0684,-1.6033,1.0084,0.9221
770.0,-1.1455,-0.532,5.0684,-2.2796,2.5307,-0.1396
774.0,-1.1455,-0.532,5.0684,-2.2796,2.5307,-0.1396
779.0,-1.1455,-0.532,5.0684,-2.2796,2.5307,-0.1396
784.0,-0.8773,-1.4615,3.2486,-2.2796,2.5307,-0.1396
790.0,-0.8773,-1.4615,3.2486,-2.2796,2.5307,-0.1396
795.0,-0.8773,-1.4615,3.2486,-2.2796,2.5307,-0.1396
799.0,-0.8773,-1.4615,3.2486,-3.001,4.0499,-0.2948
804.0,-0.8773,-1.4615,3.2486,-3.001,4.0499,-0.2948
810.0,0.3919,-1.2327,1.7321,-3.001,4.0499,-0.2948
815.0,0.3919,-1.2327,1.7321,-3.001,4.0499,-0.2948
820.0,0.3919,-1.2327,1.7321,-3.001,4.0499,-0.2948
825.0,0.3919,-1.2327,1.7321,-3.001,4.0499,-0.2948
829.0,0.3919,-1.2327,1.7321,-4.2283,5.8721,-0.6259
834.0,0.3919,-1.2327,1.7321,-4.2283,5.8721,-0.6259
840.0,0.6888,-3.6113,0.5142,-4.2283,5.8721,-0.6259
845.0,0.6888,-3.6113,0.5142,-4.2283,5.8721,-0.6259
850.0,0.6888,-3.6113,0.5142,-4.2283,5.8721,-0.6259
854.0,0.6888,-3.6113,0.5142,-4.2283,5.8721,-0.6259
859.0,0.6888,-3.6113,0.5142,-4.2283,5.8721,-0.6259
865.0,-0.8773,-6.9433,0.064,-4.4286,7.687,-1.0211
870.0,-0.8773,-6.9433,0.064,-4.4286,7.687,-1.0211
875.0,-0.8773,-6.9433,0.064,-4.4286,7.687,-1.0211
879.0,-0.8773,-6.9433,0.064,-4.4286,7.687,-1.0211
885.0,-0.8773,-6.9433,0.064,-4.4286,7.687,-1.0211
890.0,-0.8773,-6.9433,0.064,-4.4286,7.687,-1.0211
895.0,-2.3715,-8.0921,-1.1634,-4.2008,8.1079,-1.2178
899.0,-2.3715,-8.0921,-1.1634,-4.2008,8.1079,-1.2178
904.0,-2.3715,-8.0921,-1.1634,-4.2008,8.1079,-1.2178
910.0,-2.3715,-8.0921,-1.1634,-4.2008,8.1079,-1.2178
915.0,-2.3715,-8.0921,-1.1634,-4.2008,8.1079,-1.2178
920.0,-5.609,-11.8007,-0.1824,-4.2008,8.1079,-1.2178
924.0,-5.609,-11.8007,-0.1824,-4.2008,8.1079,-1.2178
929.0,-5.609,-11.8007,-0.1824,-5.2789,7.8092,-1.7156
935.0,-5.609,-11.8007,-0.1824,-5.2789,7.8092,-1.7156
940.0,-5.609,-11.8007,-0.1824,-5.2789,7.8092,-1.7156
945.0,-5.609,-11.8007,-0.1824,-5.2789,7.8092,-1.7156
949.0,-5.609,-11.8007,-0.1824,-5.2789,7.8092,-1.7156
954.0,-9.7757,-16.7773,0.6658,-5.2789,7.8092,-1.7156
960.0,-9.7757,-16.7773,0.6658,-5.2789,7.8092,-1.7156
964.0,-9.7757,-16.7773,0.6658,-5.2789,7.8092,-1.7156
970.0,-9.7757,-16.7773,0.6658,-6.2008,6.8807,-2.1237
975.0,-9.7757,-16.7773,0.6658,-6.2008,6.8807,-2.1237
979.0,-9.7757,-16.7773,0.6658,-6.2008,6.8807,-2.1237
985.0,-17.3426,-19.8757,1.0829,-6.2008,6.8807,-2.1237
990.0,-17.3426,-19.8757,1.0829,-6.2008,6.8807,-2.1237
995.0,-17.3426,-19.8757,1.0829,-6.2008,6.8807,-2.1237
1000.0,-17.3426,-19.8757,1.0829,-6.2008,6.8807,-2.1237
1004.0,-17.3426,-19.8757,1.0829,-4.6473,3.0658,-0.9429
1010.0,-17.3426,-19.8757,1.0829,-4.6473,3.0658,-0.9429
1015.0,-21.6529,-15.9431,1.0544,-4.6473,3.0658,-0.9429
1020.0,-21.6529,-15.9431,1.0544,-4.6473,3.0658,-0.9429
1024.0,-21.6529,-15.9431,1.0544,-4.6473,3.0658,-0.9429
1030.0,-21.6529,-15.9431,1.0544,-4.6473,3.0658,-0.9429
1035.0,-21.6529,-15.9431,1.0544,-4.6473,3.0658,-0.9429
1040.0,-20.8675,-14.8086,4.2012,-3.8752,-3.0789,-0.2691
1045.0,-20.8675,-14.8086,4.2012,-3.8752,-3.0789,-0.2691
1049.0,-20.8675,-14.8086,4.2012,-3.8752,-3.0789,-0.2691
1054.0,-20.8675,-14.8086,4.2012,-3.8752,-3.0789,-0.2691
1060.0,-20.8675,-14.8086,4.2012,-3.8752,-3.0789,-0.2691
1065.0,-18.9327,-17.9928,5.1111,-3.8752,-3.0789,-0.2691
1069.0,-18.9327,-17.9928,5.1111,-3.2093,-5.1657,-1.1732
1075.0,-18.9327,-17.9928,5.1111,-3.2093,-5.1657,-1.1732
1079.0,-18.9327,-17.9928,5.1111,-3.2093,-5.1657,-1.1732
1085.0,-18.9327,-17.9928,5.1111,-3.2093,-5.1657,-1.1732
1090.0,-18.9327,-17.9928,5.1111,-3.2093,-5.1657,-1.1732
1094.0,-19.1769,-11.6291,2.5283,-3.2093,-5.1657,-1.1732
1100.0,-19.1769,-11.6291,2.5283,-2.031,-7.6098,-1.1329
1105.0,-19.1769,-11.6291,2.5283,-2.031,-7.6098,-1.1329
1109.0,-19.1769,-11.6291,2.5283,-2.031,-7.6098,-1.1329
1115.0,-19.1769,-11.6291,2.5283,-2.031,-7.6098,-1.1329
1120.0,-19.1769,-11.6291,2.5283,-2.031,-7.6098,-1.1329
1125.0,-17.8359,-7.7108,5.4712,-2.031,-7.6098,-1.1329
1130.0,-17.8359,-7.7108,5.4712,-1.2283,-8.6055,-1.4285
1135.0,-17.8359,-7.7108,5.4712,-1.2283,-8.6055,-1.4285
1140.0,-17.8359,-7.7108,5.4712,-1.2283,-8.6055,-1.4285
1145.0,-17.8359,-7.7108,5.4712,-1.2283,-8.6055,-1.4285
1149.0,-12.5007,-6.0329,-0.0024,-1.2283,-8.6055,-1.4285
1155.0,-12.5007,-6.0329,-0.0024,-1.2283,-8.6055,-1.4285
1160.0,-12.5007,-6.0329,-0.0024,-0.7384,-9.3978,-1.8928
1164.0,-12.5007,-6.0329,-0.0024,-0.7384,-9.3978,-1.8928
1170.0,-12.5007,-6.0329,-0.0024,-0.7384,-9.3978,-1.8928
1175.0,-8.2048,-5.0509,0.9976,-0.7384,-9.3978,-1.8928
1180.0,-8.2048,-5.0509,0.9976,-0.7384,-9.3978,-1.8928
1184.0,-8.2048,-5.0509,0.9976,-0.7384,-9.3978,-1.8928
1190.0,-8.2048,-5.0509,0.9976,-0.7384,-9.3978,-1.8928
1195.0,-8.2048,-5.0509,0.9976,0.4412,-6.6202,-0.5281
1199.0,-8.2048,-5.0509,0.9976,0.4412,-6.6202,-0.5281
1205.0,-3.9424,-5.9661,-0.2062,0.4412,-6.6202,-0.5281
1210.0,-3.9424,-5.9661,-0.2062,0.4412,-6.6202,-0.5281
1215.0,-3.9424,-5.9661,-0.2062,0.4412,-6.6202,-0.5281
1219.0,-3.9424,-5.9661,-0.2062,0.4412,-6.6202,-0.5281
1225.0,-3.9424,-5.9661,-0.2062,1.2775,-2.6061,2.6411
1230.0,-3.1953,-6.0233,5.0495,1.2775,-2.6061,2.6411
1234.0,-3.1953,-6.0233,5.0495,1.2775,-2.6061,2.6411
1240.0,-3.1953,-6.0233,5.0495,1.2775,-2.6061,2.6411
1244.0,-3.1953,-6.0233,5.0495,1.2775,-2.6061,2.6411
1250.0,-3.1953,-6.0233,5.0495,1.2775,-2.6061,2.6411
1254.0,-3.406,-2.4006,3.2297,1.2775,-2.6061,2.6411
1260.0,-3.406,-2.4006,3.2297,0.4296,-1.3875,1.8915
1264.0,-3.406,-2.4006,3.2297,0.4296,-1.3875,1.8915
1270.0,-3.406,-2.4006,3.2297,0.4296,-1.3875,1.8915
1275.0,-3.406,-2.4006,3.2297,0.4296,-1.3875,1.8915
1280.0,-3.406,-2.4006,3.2297,0.4296,-1.3875,1.8915
1285.0,-3.2096,-1.3519,2.3577,-0.0835,-0.8126,0.0253
1289.0,-3.2096,-1.3519,2.3577,-0.0835,-0.8126,0.0253
1295.0,-3.2096,-1.3519,2.3577,-0.0835,-0.8126,0.0253
1299.0,-3.2096,-1.3519,2.3577,-0.0835,-0.8126,0.0253
1305.0,-3.2096,-1.3519,2.3577,-0.0835,-0.8126,0.0253
1310.0,-2.3428,-3.3635,2.6231,-0.0835,-0.8126,0.0253
1315.0,-2.3428,-3.3635,2.6231,-0.0835,-0.8126,0.0253
1320.0,-2.3428,-3.3635,2.6231,-0.0181,-0.2091,-0.8574
1324.0,-2.3428,-3.3635,2.6231,-0.0181,-0.2091,-0.8574
1330.0,-2.3428,-3.3635,2.6231,-0.0181,-0.2091,-0.8574
1334.0,-3.382,-3.6066,2.0307,-0.0181,-0.2091,-0.8574
1340.0,-3.382,-3.6066,2.0307,-0.0181,-0.2091,-0.8574
1345.0,-3.382,-3.6066,2.0307,-0.0181,-0.2091,-0.8574
1350.0,-3.382,-3.6066,2.0307,-0.1617,0.5136,-0.916
1354.0,-3.382,-3.6066,2.0307,-0.1617,0.5136,-0.916
1360.0,-3.382,-3.6066,2.0307,-0.1617,0.5136,-0.916
1365.0,-4.1052,-3.8068,4.078,-0.1617,0.5136,-0.916
1369.0,-4.1052,-3.8068,4.078,-0.1617,0.5136,-0.916
1375.0,-4.1052,-3.8068,4.078,-0.1617,0.5136,-0.916
1379.0,-4.1052,-3.8068,4.078,0.0771,0.8044,-0.1121
1385.0,-4.1052,-3.8068,4.078,0.0771,0.8044,-0.1121
1389.0,-5.1924,-6.624,5.5471,0.0771,0.8044,-0.1121
1395.0,-5.1924,-6.624,5.5471,0.0771,0.8044,-0.1121
1399.0,-5.1924,-6.624,5.5471,0.0771,0.8044,-0.1121
1404.0,-5.1924,-6.624,5.5471,0.0771,0.8044,-0.1121
1411.0,-5.1924,-6.624,5.5471,0.5151,0.5411,1.4377
1415.0,-5.1924,-6.624,5.5471,0.5151,0.5411,1.4377
1419.0,-4.0382,-9.8988,6.5423,0.5151,0.5411,1.4377
1425.0,-4.0382,-9.8988,6.5423,0.5151,0.5411,1.4377
1430.0,-4.0382,-9.8988,6.5423,0.5151,0.5411,1.4377
1435.0,-4.0382,-9.8988,6.5423,0.5151,0.5411,1.4377
1440.0,-4.0382,-9.8988,6.5423,0.5151,0.5411,1.4377
1444.0,-2.8121,-5.8279,3.9926,-0.1996,-0.3483,1.8524
1450.0,-2.8121,-5.8279,3.9926,-0.1996,-0.3483,1.8524
1454.0,-2.8121,-5.8279,3.9926,-0.1996,-0.3483,1.8524
1460.0,-2.8121,-5.8279,3.9926,-0.1996,-0.3483,1.8524
1464.0,-2.8121,-5.8279,3.9926,-0.1996,-0.3483,1.8524
1470.0,-3.6359,-4.3025,3.9168,-0.1104,1.1642,-0.3155
1475.0,-3.6359,-4.3025,3.9168,-0.1104,1.1642,-0.3155
1480.0,-3.6359,-4.3025,3.9168,-0.1104,1.1642,-0.3155
1484.0,-3.6359,-4.3025,3.9168,-0.1104,1.1642,-0.3155
1489.0,-3.6359,-4.3025,3.9168,-0.1104,1.1642,-0.3155
1495.0,-3.6359,-4.3025,3.9168,-0.1104,1.1642,-0.3155
1500.0,-4.4357,-5.9661,3.6941,0.1663,1.877,-1.2398
1505.0,-4.4357,-5.9661,3.6941,0.1663,1.877,-1.2398
1509.0,-4.4357,-5.9661,3.6941,0.1663,1.877,-1.2398
1515.0,-4.4357,-5.9661,3.6941,0.1663,1.877,-1.2398
1520.0,-4.4357,-5.9661,3.6941,0.1663,1.877,-1.2398
1525.0,-5.1684,-8.4067,3.6988,0.1663,1.877,-1.2398
1529.0,-5.1684,-8.4067,3.6988,0.1663,1.877,-1.2398
1535.0,-5.1684,-8.4067,3.6988,0.1285,1.6559,-0.3314
1540.0,-5.1684,-8.4067,3.6988,0.1285,1.6559,-0.3314
1545.0,-5.1684,-8.4067,3.6988,0.1285,1.6559,-0.3314
1549.0,-5.1684,-8.4067,3.6988,0.1285,1.6559,-0.3314
1555.0,-2.7116,-6.2236,0.3531,0.1285,1.6559,-0.3314
1559.0,-2.7116,-6.2236,0.3531,0.1285,1.6559,-0.3314
1565.0,-2.7116,-6.2236,0.3531,-0.439,-0.2909,0.0779
1570.0,-2.7116,-6.2236,0.3531,-0.439,-0.2909,0.0779
1575.0,-2.7116,-6.2236,0.3531,-0.439,-0.2909,0.0779
1580.0,-2.7116,-6.2236,0.3531,-0.439,-0.2909,0.0779
1584.0,-3.4108,-8.1589,3.3766,-0.439,-0.2909,0.0779
1590.0,-3.4108,-8.1589,3.3766,-1.2356,-0.1406,-0.5269
1595.0,-3.4108,-8.1589,3.3766,-1.2356,-0.1406,-0.5269
1600.0,-3.4108,-8.1589,3.3766,-1.2356,-0.1406,-0.5269
1605.0,-3.4108,-8.1589,3.3766,-1.2356,-0.1406,-0.5269
1610.0,-5.5947,-8.1827,3.9784,-1.2356,-0.1406,-0.5269
1614.0,-5.5947,-8.1827,3.9784,-1.2356,-0.1406,-0.5269
1620.0,-5.5947,-8.1827,3.9784,-1.2356,-0.1406,-0.5269
1625.0,-5.5947,-8.1827,3.9784,0.1211,1.5191,-1.5312
1630.0,-5.5947,-8.1827,3.9784,0.1211,1.5191,-1.5312
1635.0,-5.1301,-9.1027,1.2345,0.1211,1.5191,-1.5312
1640.0,-5.1301,-9.1027,1.2345,0.1211,1.5191,-1.5312
1645.0,-5.1301,-9.1027,1.2345,0.1211,1.5191,-1.5312
1650.0,-5.1301,-9.1027,1.2345,0.1211,1.5191,-1.5312
1655.0,-5.1301,-9.1027,1.2345,1.3869,1.7848,-1.6478
1660.0,-6.9979,-11.734,0.827,1.3869,1.7848,-1.6478
1666.0,-6.9979,-11.734,0.827,1.3869,1.7848,-1.6478
1670.0,-6.9979,-11.734,0.827,1.3869,1.7848,-1.6478
1675.0,-6.9979,-11.734,0.827,1.3869,1.7848,-1.6478
1680.0,-6.9979,-11.734,0.827,1.3869,1.7848,-1.6478
1686.0,-7.2134,-13.9267,1.7748,1.5555,1.6529,-0.6124
1690.0,-7.2134,-13.9267,1.7748,1.5555,1.6529,-0.6124
1694.0,-7.2134,-13.9267,1.7748,1.5555,1.6529,-0.6124
1699.0,-7.2134,-13.9267,1.7748,1.5555,1.6529,-0.6124
1705.0,-7.2134,-13.9267,1.7748,1.5555,1.6529,-0.6124
1710.0,-6.6818,-15.352,1.0402,1.5555,1.6529,-0.6124
1715.0,-6.6818,-15.352,1.0402,0.9721,-0.1339,1.2165
1720.0,-6.6818,-15.352,1.0402,0.9721,-0.1339,1.2165
1725.0,-6.6818,-15.352,1.0402,0.9721,-0.1339,1.2165
1730.0,-6.6818,-15.352,1.0402,0.9721,-0.1339,1.2165
1735.0,-6.6818,-15.352,1.0402,0.9721,-0.1339,1.2165
1740.0,-7.3571,-16.0289,3.6277,0.9721,-0.1339,1.2165
1745.0,-7.3571,-16.0289,3.6277,0.9721,-0.1339,1.2165
1750.0,-7.3571,-16.0289,3.6277,0.4968,-1.8474,2.5397
1755.0,-7.3571,-16.0289,3.6277,0.4968,-1.8474,2.5397
1760.0,-7.3571,-16.0289,3.6277,0.4968,-1.8474,2.5397
1765.0,-7.3571,-16.0289,3.6277,0.4968,-1.8474,2.5397
1770.0,-7.2134,-10.1562,1.244,0.4968,-1.8474,2.5397
1774.0,-7.2134,-10.1562,1.244,0.4968,-1.8474,2.5397
1780.0,-7.2134,-10.1562,1.244,0.0087,-3.498,2.3741
1785.0,-7.2134,-10.1562,1.244,0.0087,-3.498,2.3741
1790.0,-7.2134,-10.1562,1.244,0.0087,-3.498,2.3741
1795.0,-7.3858,-8.3924,3.1159,0.0087,-3.498,2.3741
1800.0,-7.3858,-8.3924,3.1159,0.0087,-3.498,2.3741
1806.0,-7.3858,-8.3924,3.1159,0.0087,-3.498,2.3741
1810.0,-7.3858,-8.3924,3.1159,0.8383,-2.947,1.3515
1814.0,-7.3858,-8.3924,3.1159,0.8383,-2.947,1.3515
1820.0,-6.2029,-7.7823,3.2913,0.8383,-2.947,1.3515
1825.0,-6.2029,-7.7823,3.2913,0.8383,-2.947,1.3515
1830.0,-6.2029,-7.7823,3.2913,0.8383,-2.947,1.3515
1835.0,-6.2029,-7.7823,3.2913,0.8383,-2.947,1.3515
1840.0,-6.2029,-7.7823,3.2913,2.5585,-1.644,1.3222
1845.0,-6.2029,-7.7823,3.2913,2.5585,-1.644,1.3222
1850.0,-3.8754,-7.4105,4.6609,2.5585,-1.644,1.3222
1855.0,-3.8754,-7.4105,4.6609,2.5585,-1.644,1.3222
1860.0,-3.8754,-7.4105,4.6609,2.5585,-1.644,1.3222
1865.0,-3.8754,-7.4105,4.6609,2.5585,-1.644,1.3222
1870.0,-3.8754,-7.4105,4.6609,3.0991,0.1599,1.7162
1875.0,-0.2355,0.0591,0.4621,3.0991,0.1599,1.7162
1880.0,-0.2355,0.0591,0.4621,3.0991,0.1599,1.7162
1885.0,-0.2355,0.0591,0.4621,3.0991,0.1599,1.7162
1890.0,-0.2355,0.0591,0.4621,3.0991,0.1599,1.7162
1895.0,-0.2355,0.0591,0.4621,3.0991,0.1599,1.7162
1900.0,-2.0315,1.9325,2.2771,2.1242,0.3486,1.0516
1905.0,-2.0315,1.9325,2.2771,2.1242,0.3486,1.0516
1910.0,-2.0315,1.9325,2.2771,2.1242,0.3486,1.0516
1915.0,-2.0315,1.9325,2.2771,2.1242,0.3486,1.0516
1920.0,-2.0315,1.9325,2.2771,2.1242,0.3486,1.0516
1925.0,-5.9778,3.8964,0.5616,2.1242,0.3486,1.0516
1930.0,-5.9778,3.8964,0.5616,1.0582,1.1831,-0.7896
1935.0,-5.9778,3.8964,0.5616,1.0582,1.1831,-0.7896
1940.0,-5.9778,3.8964,0.5616,1.0582,1.1831,-0.7896
1945.0,-5.9778,3.8964,0.5616,1.0582,1.1831,-0.7896
1950.0,-5.9778,3.8964,0.5616,1.0582,1.1831,-0.7896
1955.0,-5.5324,3.2386,2.2961,1.0582,1.1831,-0.7896
1960.0,-5.5324,3.2386,2.2961,-0.761,0.9381,-2.5837
1964.0,-5.5324,3.2386,2.2961,-0.761,0.9381,-2.5837
1969.0,-5.5324,3.2386,2.2961,-0.761,0.9381,-2.5837
1974.0,-5.5324,3.2386,2.2961,-0.761,0.9381,-2.5837
1979.0,-6.6914,0.183,4.3813,-0.761,0.9381,-2.5837
1984.0,-6.6914,0.183,4.3813,-0.761,0.9381,-2.5837
1989.0,-6.6914,0.183,4.3813,-0.761,0.9381,-2.5837
1994.0,-6.6914,0.183,4.3813,-1.3981,0.8795,-2.5373
2000.0,-6.6914,0.183,4.3813,-1.3981,0.8795,-2.5373
2005.0,-7.5822,-3.1966,6.1584,-1.3981,0.8795,-2.5373
2009.0,-7.5822,-3.1966,6.1584,-1.3981,0.8795,-2.5373
2014.0,-7.5822,-3.1966,6.1584,-1.3981,0.8795,-2.5373
2020.0,-7.5822,-3.1966,6.1584,-1.3981,0.8795,-2.5373
2029.0,-8.2383,-3.945,6.6939,-0.4274,0.4134,-0.343
2030.0,-8.2383,-3.945,6.6939,-0.4274,0.4134,-0.343
2035.0,-8.2383,-3.945,6.6939,-0.4274,0.4134,-0.343
2040.0,-8.2383,-3.945,6.6939,-0.4274,0.4134,-0.343
2045.0,-8.2383,-3.945,6.6939,-0.4274,0.4134,-0.343
2050.0,-8.2383,-3.945,6.6939,-0.4274,0.4134,-0.343
2054.0,-8.2383,-3.945,6.6939,0.2995,-0.1791,2.1212
2060.0,-7.9797,-5.4323,6.3906,0.2995,-0.1791,2.1212
2064.0,-7.9797,-5.4323,6.3906,0.2995,-0.1791,2.1212
2070.0,-7.9797,-5.4323,6.3906,0.2995,-0.1791,2.1212
2075.0,-7.9797,-5.4323,6.3906,0.2995,-0.1791,2.1212
2080.0,-7.9797,-5.4323,6.3906,0.2995,-0.1791,2.1212
2085.0,-8.9759,-11.3908,8.1298,0.2995,-0.1791,2.1212
2089.0,-8.9759,-11.3908,8.1298,-0.582,0.235,2.5305
2095.0,-8.9759,-11.3908,8.1298,-0.582,0.235,2.5305
2100.0,-8.9759,-11.3908,8.1298,-0.582,0.235,2.5305
2105.0,-8.9759,-11.3908,8.1298,-0.582,0.235,2.5305
2110.0,-8.9759,-11.3908,8.1298,-0.582,0.235,2.5305
2115.0,-14.1003,-15.719,3.6704,-0.582,0.235,2.5305
2120.0,-14.1003,-15.719,3.6704,-1.687,2.381,-1.4695
2125.0,-14.1003,-15.719,3.6704,-1.687,2.381,-1.4695
2130.0,-14.1003,-15.719,3.6704,-1.687,2.381,-1.4695
2135.0,-14.1003,-15.719,3.6704,-1.687,2.381,-1.4695
2139.0,-10.336,-12.7446,0.7559,-1.687,2.381,-1.4695
2145.0,-10.336,-12.7446,0.7559,-1.687,2.381,-1.4695
2150.0,-10.336,-12.7446,0.7559,-2.8843,3.7439,-3.3955
2154.0,-10.336,-12.7446,0.7559,-2.8843,3.7439,-3.3955
2160.0,-10.336,-12.7446,0.7559,-2.8843,3.7439,-3.3955
2165.0,-10.336,-12.7446,0.7559,-2.8843,3.7439,-3.3955
2170.0,-6.3418,-13.7313,3.642,-2.8843,3.7439,-3.3955
2175.0,-6.3418,-13.7313,3.642,-2.8843,3.7439,-3.3955
2180.0,-6.3418,-13.7313,3.642,-2.8843,3.7439,-3.3955
2185.0,-6.3418,-13.7313,3.642,-1.436,2.538,0.2373
2190.0,-6.3418,-13.7313,3.642,-1.436,2.538,0.2373
2195.0,-6.3418,-13.7313,3.642,-1.436,2.538,0.2373
2200.0,-4.7326,-20.2666,6.111,-1.436,2.538,0.2373
2204.0,-4.7326,-20.2666,6.111,-1.436,2.538,0.2373
2210.0,-4.7326,-20.2666,6.111,-1.436,2.538,0.2373
2216.0,-4.7326,-20.2666,6.111,-1.4641,1.2692,2.4389
2220.0,-4.7326,-20.2666,6.111,-1.4641,1.2692,2.4389
2225.0,-2.7451,-10.2658,5.0258,-1.4641,1.2692,2.4389
2230.0,-2.7451,-10.2658,5.0258,-1.4641,1.2692,2.4389
2235.0,-2.7451,-10.2658,5.0258,-1.4641,1.2692,2.4389
2240.0,-2.7451,-10.2658,5.0258,-1.4641,1.2692,2.4389
2245.0,-2.7451,-10.2658,5.0258,-2.3614,0.6486,-0.4915
2250.0,-5.7862,-6.1806,4.4381,-2.3614,0.6486,-0.4915
2255.0,-5.7862,-6.1806,4.4381,-2.3614,0.6486,-0.4915
2260.0,-5.7862,-6.1806,4.4381,-2.3614,0.6486,-0.4915
2265.0,-5.7862,-6.1806,4.4381,-2.3614,0.6486,-0.4915
2270.0,-5.7862,-6.1806,4.4381,-2.3614,0.6486,-0.4915
2275.0,-11.744,-6.6621,12.9116,-2.3614,0.6486,-0.4915
2279.0,-11.744,-6.6621,12.9116,-1.1037,1.7427,-0.3522
2286.0,-11.744,-6.6621,12.9116,-1.1037,1.7427,-0.3522
2290.0,-11.744,-6.6621,12.9116,-1.1037,1.7427,-0.3522
2295.0,-11.744,-6.6621,12.9116,-1.1037,1.7427,-0.3522
2300.0,-11.744,-6.6621,12.9116,-1.1037,1.7427,-0.3522
2305.0,-2.5439,-4.2406,1.9027,-1.1037,1.7427,-0.3522
2310.0,-2.5439,-4.2406,1.9027,-1.1305,1.9931,-0.0412
2315.0,-2.5439,-4.2406,1.9027,-1.1305,1.9931,-0.0412
2320.0,-2.5439,-4.2406,1.9027,-1.1305,1.9931,-0.0412
2325.0,-2.5439,-4.2406,1.9027,-1.1305,1.9931,-0.0412
2330.0,0.071,-3.6018,-4.187,-1.1305,1.9931,-0.0412
2334.0,0.071,-3.6018,-4.187,-1.1305,1.9931,-0.0412
2340.0,0.071,-3.6018,-4.187,-0.7946,0.7231,0.4762
2344.0,0.071,-3.6018,-4.187,-0.7946,0.7231,0.4762
2349.0,0.071,-3.6018,-4.187,-0.7946,0.7231,0.4762
2355.0,-4.7135,-6.3237,1.3483,-0.7946,0.7231,0.4762
2359.0,-4.7135,-6.3237,1.3483,-0.7946,0.7231,0.4762
2365.0,-4.7135,-6.3237,1.3483,-0.7946,0.7231,0.4762
2369.0,-4.7135,-6.3237,1.3483,-0.1165,0.6706,0.3741
2375.0,-4.7135,-6.3237,1.3483,-0.1165,0.6706,0.3741
2379.0,-4.7135,-6.3237,1.3483,-0.1165,0.6706,0.3741
2385.0,-1.2796,0.4881,3.8505,-0.1165,0.6706,0.3741
2390.0,-1.2796,0.4881,3.8505,-0.1165,0.6706,0.3741
2395.0,-1.2796,0.4881,3.8505,-0.1165,0.6706,0.3741
2400.0,-1.2796,0.4881,3.8505,-0.1165,0.6706,0.3741
2405.0,-1.2796,0.4881,3.8505,-1.3382,1.7982,-1.1506
2410.0,-1.203,-5.1606,-1.4099,-1.3382,1.7982,-1.1506
2414.0,-1.203,-5.1606,-1.4099,-1.3382,1.7982,-1.1506
2420.0,-1.203,-5.1606,-1.4099,-1.3382,1.7982,-1.1506
2425.0,-1.203,-5.1606,-1.4099,-1.3382,1.7982,-1.1506
2429.0,-1.203,-5.1606,-1.4099,-1.3382,1.7982,-1.1506
2435.0,-1.203,-5.1606,-1.4099,-0.1293,2.1965,-0.1274
2440.0,-2.8313,-8.4496,-2.2013,-0.1293,2.1965,-0.1274
2444.0,-2.8313,-8.4496,-2.2013,-0.1293,2.1965,-0.1274
2449.0,-2.8313,-8.4496,-2.2013,-0.1293,2.1965,-0.1274
2455.0,-2.8313,-8.4496,-2.2013,-0.1293,2.1965,-0.1274
2460.0,-2.8313,-8.4496,-2.2013,-0.1293,2.1965,-0.1274
2465.0,-8.6646,-8.6165,-1.4004,1.5249,1.0988,1.3045
2469.0,-8.6646,-8.6165,-1.4004,1.5249,1.0988,1.3045
2474.0,-8.6646,-8.6165,-1.4004,1.5249,1.0988,1.3045
2479.0,-8.6646,-8.6165,-1.4004,1.5249,1.0988,1.3045
2485.0,-8.6646,-8.6165,-1.4004,1.5249,1.0988,1.3045
2490.0,-10.7048,-10.4136,0.6422,1.5249,1.0988,1.3045
2495.0,-10.7048,-10.4136,0.6422,0.3459,0.2112,-0.6979
2500.0,-10.7048,-10.4136,0.6422,0.3459,0.2112,-0.6979
2505.0,-10.7048,-10.4136,0.6422,0.3459,0.2112,-0.6979
2510.0,-10.7048,-10.4136,0.6422,0.3459,0.2112,-0.6979
2514.0,-10.7048,-10.4136,0.6422,0.3459,0.2112,-0.6979
2519.0,-11.2076,-10.3468,-0.4573,0.3459,0.2112,-0.6979
2525.0,-11.2076,-10.3468,-0.4573,-0.1965,-0.1278,0.1683
2530.0,-11.2076,-10.3468,-0.4573,-0.1965,-0.1278,0.1683
2537.0,-11.2076,-10.3468,-0.4573,-0.1965,-0.1278,0.1683
2540.0,-11.2076,-10.3468,-0.4573,-0.1965,-0.1278,0.1683
2544.0,-12.5726,-9.9226,-0.8222,-0.1965,-0.1278,0.1683
2550.0,-12.5726,-9.9226,-0.8222,-0.1965,-0.1278,0.1683
2555.0,-12.5726,-9.9226,-0.8222,1.6673,-0.8615,0.5708
2560.0,-12.5726,-9.9226,-0.8222,1.6673,-0.8615,0.5708
2565.0,-12.5726,-9.9226,-0.8222,1.6673,-0.8615,0.5708
2569.0,-6.6866,-9.3506,0.0118,1.6673,-0.8615,0.5708
2575.0,-6.6866,-9.3506,0.0118,1.6673,-0.8615,0.5708
2580.0,-6.6866,-9.3506,0.0118,1.6673,-0.8615,0.5708
2584.0,-6.6866,-9.3506,0.0118,2.3679,-0.0551,0.5947
2590.0,-6.6866,-9.3506,0.0118,2.3679,-0.0551,0.5947
2595.0,-6.6866,-9.3506,0.0118,2.3679,-0.0551,0.5947
2600.0,-6.6866,-9.3506,0.0118,2.3679,-0.0551,0.5947
2605.0,-9.3734,-10.7997,3.6088,2.3679,-0.0551,0.5947
2610.0,-9.3734,-10.7997,3.6088,2.3679,-0.0551,0.5947
2616.0,-9.3734,-10.7997,3.6088,3.1828,1.4696,1.9276
2619.0,-9.3734,-10.7997,3.6088,3.1828,1.4696,1.9276
2625.0,-9.3734,-10.7997,3.6088,3.1828,1.4696,1.9276
2630.0,-1.0066,-16.0765,3.2155,3.1828,1.4696,1.9276
2635.0,-1.0066,-16.0765,3.2155,3.1828,1.4696,1.9276
2640.0,-1.0066,-16.0765,3.2155,3.1828,1.4696,1.9276
2645.0,-1.0066,-16.0765,3.2155,3.1828,1.4696,1.9276
2650.0,-1.0066,-16.0765,3.2155,4.3013,-0.7436,2.7095
2654.0,-1.0066,-16.0765,3.2155,4.3013,-0.7436,2.7095
2660.0,3.4857,-12.1201,12.2813,4.3013,-0.7436,2.7095
2665.0,3.4857,-12.1201,12.2813,4.3013,-0.7436,2.7095
2669.0,3.4857,-12.1201,12.2813,4.3013,-0.7436,2.7095
2675.0,3.4857,-12.1201,12.2813,4.3013,-0.7436,2.7095
2679.0,3.4857,-12.1201,12.2813,5.3838,1.7995,-1.4682
2685.0,3.4857,-12.1201,12.2813,5.3838,1.7995,-1.4682
2690.0,-3.5545,-5.8708,2.9264,5.3838,1.7995,-1.4682
2695.0,-3.5545,-5.8708,2.9264,5.3838,1.7995,-1.4682
2700.0,-3.5545,-5.8708,2.9264,5.3838,1.7995,-1.4682
2705.0,-3.5545,-5.8708,2.9264,5.3838,1.7995,-1.4682
2710.0,-3.5545,-5.8708,2.9264,8.3777,0.5093,-4.6093
2715.0,-8.0563,-0.7131,-2.3245,8.3777,0.5093,-4.6093
2720.0,-8.0563,-0.7131,-2.3245,8.3777,0.5093,-4.6093
2725.0,-8.0563,-0.7131,-2.3245,8.3777,0.5093,-4.6093
2730.0,-8.0563,-0.7131,-2.3245,8.3777,0.5093,-4.6093
2735.0,-8.0563,-0.7131,-2.3245,8.3777,0.5093,-4.6093
2740.0,-8.0563,-0.7131,-2.3245,8.3777,0.5093,-4.6093
2745.0,-4.6656,0.9648,-5.4902,9.0606,-2.2158,-5.5
2750.0,-4.6656,0.9648,-5.4902,9.0606,-2.2158,-5.5
2755.0,-4.6656,0.9648,-5.4902,9.0606,-2.2158,-5.5
2760.0,-4.6656,0.9648,-5.4902,9.0606,-2.2158,-5.5
2764.0,-4.6656,0.9648,-5.4902,9.0606,-2.2158,-5.5
2770.0,-4.6656,0.9648,-5.4902,9.0606,-2.2158,-5.5
2775.0,-3.4826,1.7608,10.9496,1.0882,3.312,2.2526
2780.0,-3.4826,1.7608,10.9496,1.0882,3.312,2.2526
2784.0,-3.4826,1.7608,10.9496,1.0882,3.312,2.2526
2790.0,-3.4826,1.7608,10.9496,1.0882,3.312,2.2526
2794.0,-3.4826,1.7608,10.9496,1.0882,3.312,2.2526
2800.0,-3.4826,1.7608,10.9496,1.0882,3.312,2.2526
2804.0,-4.7278,-0.9753,-5.3101,-3.1922,2.5411,2.0027
2810.0,-4.7278,-0.9753,-5.3101,-3.1922,2.5411,2.0027
2815.0,-4.7278,-0.9753,-5.3101,-3.1922,2.5411,2.0027
2819.0,-4.7278,-0.9753,-5.3101,-3.1922,2.5411,2.0027
2825.0,-4.7278,-0.9753,-5.3101,-3.1922,2.5411,2.0027
2830.0,-8.4155,-2.8677,-1.6136,-3.1922,2.5411,2.0027
2835.0,-8.4155,-2.8677,-1.6136,-3.1922,2.5411,2.0027
2839.0,-8.4155,-2.8677,-1.6136,-1.9008,1.7335,2.8555
2845.0,-8.4155,-2.8677,-1.6136,-1.9008,1.7335,2.8555
2849.0,-8.4155,-2.8677,-1.6136,-1.9008,1.7335,2.8555
2855.0,-8.4155,-2.8677,-1.6136,-1.9008,1.7335,2.8555
2860.0,-7.0075,-1.3995,-1.8933,-1.9008,1.7335,2.8555
2865.0,-7.0075,-1.3995,-1.8933,-1.472,0.9198,3.0418
2871.0,-7.0075,-1.3995,-1.8933,-1.472,0.9198,3.0418
2875.0,-7.0075,-1.3995,-1.8933,-1.472,0.9198,3.0418
2880.0,-7.0075,-1.3995,-1.8933,-1.472,0.9198,3.0418
2885.0,-4.838,-1.9382,-2.4288,-1.472,0.9198,3.0418
2890.0,-4.838,-1.9382,-2.4288,-1.472,0.9198,3.0418
2894.0,-4.838,-1.9382,-2.4288,-1.472,0.9198,3.0418
2900.0,-4.838,-1.9382,-2.4288,-1.359,1.5533,2.1548
2905.0,-4.838,-1.9382,-2.4288,-1.359,1.5533,2.1548
2910.0,-4.838,-1.9382,-2.4288,-1.359,1.5533,2.1548
2914.0,-0.4558,-1.4281,-4.1254,-1.359,1.5533,2.1548
2920.0,-0.4558,-1.4281,-4.1254,-1.359,1.5533,2.1548
2925.0,-0.4558,-1.4281,-4.1254,-1.359,1.5533,2.1548
2930.0,-0.4558,-1.4281,-4.1254,-0.7475,0.5093,1.0974
2935.0,-0.4558,-1.4281,-4.1254,-0.7475,0.5093,1.0974
2940.0,-5.1349,1.1841,-1.9691,-0.7475,0.5093,1.0974
2945.0,-5.1349,1.1841,-1.9691,-0.7475,0.5093,1.0974
2950.0,-5.1349,1.1841,-1.9691,-0.7475,0.5093,1.0974
2955.0,-5.1349,1.1841,-1.9691,-0.7475,0.5093,1.0974
2960.0,-5.1349,1.1841,-1.9691,-1.756,2.3181,0.5207
2965.0,-10.3791,-5.132,6.0826,-1.756,2.3181,0.5207
2969.0,-10.3791,-5.132,6.0826,-1.756,2.3181,0.5207
2975.0,-10.3791,-5.132,6.0826,-1.756,2.3181,0.5207
2980.0,-10.3791,-5.132,6.0826,-1.756,2.3181,0.5207
2985.0,-10.3791,-5.132,6.0826,-1.756,2.3181,0.5207
2990.0,-10.3791,-5.132,6.0826,-1.756,2.3181,0.5207
2995.0,-8.3868,-6.4619,-3.4998,-1.7817,2.2656,2.1945
3000.0,-8.3868,-6.4619,-3.4998,-1.7817,2.2656,2.1945
3005.0,-8.3868,-6.4619,-3.4998,-1.7817,2.2656,2.1945
3010.0,-8.3868,-6.4619,-3.4998,-1.7817,2.2656,2.1945
3015.0,-8.3868,-6.4619,-3.4998,-1.7817,2.2656,2.1945
3020.0,-8.3868,-6.4619,-3.4998,-1.7817,2.2656,2.1945
3025.0,-8.3868,-6.4619,-3.4998,-1.7817,2.2656,2.1945
3031.0,-11.5716,-6.9338,-2.5852,-1.6662,2.6523,2.23
3034.0,-11.5716,-6.9338,-2.5852,-1.6662,2.6523,2.23
3039.0,-11.5716,-6.9338,-2.5852,-1.6662,2.6523,2.23
3045.0,-11.5716,-6.9338,-2.5852,-1.6662,2.6523,2.23
3049.0,-11.5716,-6.9338,-2.5852,-1.6662,2.6523,2.23
3055.0,-10.2067,-4.8602,-13.6272,-1.6662,2.6523,2.23
3060.0,-10.2067,-4.8602,-13.6272,-2.8416,2.2112,0.7504
3065.0,-10.2067,-4.8602,-13.6272,-2.8416,2.2112,0.7504
3069.0,-10.2067,-4.8602,-13.6272,-2.8416,2.2112,0.7504
3075.0,-10.2067,-4.8602,-13.6272,-2.8416,2.2112,0.7504
3080.0,-10.2067,-4.8602,-13.6272,-2.8416,2.2112,0.7504
3085.0,-13.2191,-6.0948,-8.5137,-2.8416,2.2112,0.7504
3090.0,-13.2191,-6.0948,-8.5137,-2.0407,-0.5731,-0.7725
3095.0,-13.2191,-6.0948,-8.5137,-2.0407,-0.5731,-0.7725
3099.0,-13.2191,-6.0948,-8.5137,-2.0407,-0.5731,-0.7725
3104.0,-13.2191,-6.0948,-8.5137,-2.0407,-0.5731,-0.7725
3110.0,-14.5697,-9.7081,2.4904,-2.0407,-0.5731,-0.7725
3115.0,-14.5697,-9.7081,2.4904,-2.0407,-0.5731,-0.7725
3119.0,-14.5697,-9.7081,2.4904,-0.246,0.1208,0.4254
3125.0,-14.5697,-9.7081,2.4904,-0.246,0.1208,0.4254
3130.0,-14.5697,-9.7081,2.4904,-0.246,0.1208,0.4254
3135.0,-9.6272,-9.4459,2.7605,-0.246,0.1208,0.4254
3140.0,-9.6272,-9.4459,2.7605,-0.246,0.1208,0.4254
3145.0,-9.6272,-9.4459,2.7605,-0.246,0.1208,0.4254
3150.0,-9.6272,-9.4459,2.7605,-0.227,1.6816,1.1909
3154.0,-9.6272,-9.4459,2.7605,-0.227,1.6816,1.1909
3159.0,-9.6272,-9.4459,2.7605,-0.227,1.6816,1.1909
3165.0,-9.9146,-9.1885,-4.8789,-0.227,1.6816,1.1909
3170.0,-9.9146,-9.1885,-4.8789,-0.227,1.6816,1.1909
3175.0,-9.9146,-9.1885,-4.8789,-0.227,1.6816,1.1909
3180.0,-9.9146,-9.1885,-4.8789,-0.3248,0.7127,0.291
3185.0,-9.9146,-9.1885,-4.8789,-0.3248,0.7127,0.291
3191.0,-8.7508,-8.8167,-5.6798,-0.3248,0.7127,0.291
3195.0,-8.7508,-8.8167,-5.6798,-0.3248,0.7127,0.291
3200.0,-8.7508,-8.8167,-5.6798,-0.3248,0.7127,0.291
3205.0,-8.7508,-8.8167,-5.6798,-0.3248,0.7127,0.291
3210.0,-8.7508,-8.8167,-5.6798,-0.3248,0.7127,0.291
3214.0,-8.7508,-8.8167,-5.6798,-0.7047,0.5967,0.0461
3219.0,-5.724,-8.1779,0.4147,-0.7047,0.5967,0.0461
3225.0,-5.724,-8.1779,0.4147,-0.7047,0.5967,0.0461
3230.0,-5.724,-8.1779,0.4147,-0.7047,0.5967,0.0461
3235.0,-5.724,-8.1779,0.4147,-0.7047,0.5967,0.0461
3240.0,-5.724,-8.1779,0.4147,-0.7047,0.5967,0.0461
3245.0,-7.769,-7.358,1.2867,-0.5905,1.4617,1.0284
3250.0,-7.769,-7.358,1.2867,-0.5905,1.4617,1.0284
3255.0,-7.769,-7.358,1.2867,-0.5905,1.4617,1.0284
3260.0,-7.769,-7.358,1.2867,-0.5905,1.4617,1.0284
3265.0,-7.769,-7.358,1.2867,-0.5905,1.4617,1.0284
3270.0,-7.769,-7.358,1.2867,-0.5905,1.4617,1.0284
3275.0,-8.54,-8.7452,-0.9644,-0.5551,-0.71,1.4743
3280.0,-8.54,-8.7452,-0.9644,-0.5551,-0.71,1.4743
3285.0,-8.54,-8.7452,-0.9644,-0.5551,-0.71,1.4743
3290.0,-8.54,-8.7452,-0.9644,-0.5551,-0.71,1.4743
3295.0,-8.54,-8.7452,-0.9644,-0.5551,-0.71,1.4743
3300.0,-7.7307,-6.643,-0.5284,-0.5551,-0.71,1.4743
3304.0,-7.7307,-6.643,-0.5284,-0.8025,-2.6373,1.156
3310.0,-7.7307,-6.643,-0.5284,-0.8025,-2.6373,1.156
3315.0,-7.7307,-6.643,-0.5284,-0.8025,-2.6373,1.156
3320.0,-7.7307,-6.643,-0.5284,-0.8025,-2.6373,1.156
3325.0,-7.7307,-6.643,-0.5284,-0.8025,-2.6373,1.156
3330.0,-1.883,-2.9917,-0.7843,-0.8025,-2.6373,1.156
3335.0,-1.883,-2.9917,-0.7843,-1.0022,-3.3312,1.5134
3340.0,-1.883,-2.9917,-0.7843,-1.0022,-3.3312,1.5134
3345.0,-1.883,-2.9917,-0.7843,-1.0022,-3.3312,1.5134
3350.0,-1.883,-2.9917,-0.7843,-1.0022,-3.3312,1.5134
3355.0,-1.0353,-1.3423,1.0165,-1.0022,-3.3312,1.5134
3360.0,-1.0353,-1.3423,1.0165,-1.0022,-3.3312,1.5134
3365.0,-1.0353,-1.3423,1.0165,-1.4879,-1.6758,1.7858
3371.0,-1.0353,-1.3423,1.0165,-1.4879,-1.6758,1.7858
3375.0,-1.0353,-1.3423,1.0165,-1.4879,-1.6758,1.7858
3380.0,-0.3888,-1.6808,1.5757,-1.4879,-1.6758,1.7858
3384.0,-0.3888,-1.6808,1.5757,-1.4879,-1.6758,1.7858
3390.0,-0.3888,-1.6808,1.5757,-1.4879,-1.6758,1.7858
3395.0,-0.3888,-1.6808,1.5757,-1.4879,-1.6758,1.7858
3400.0,-0.3888,-1.6808,1.5757,-1.841,0.5148,1.9917
3404.0,-0.3888,-1.6808,1.5757,-1.841,0.5148,1.9917
3410.0,0.775,-3.1251,3.2771,-1.841,0.5148,1.9917
3415.0,0.775,-3.1251,3.2771,-1.841,0.5148,1.9917
3420.0,0.775,-3.1251,3.2771,-1.841,0.5148,1.9917
3424.0,0.775,-3.1251,3.2771,-1.841,0.5148,1.9917
3431.0,0.775,-3.1251,3.2771,-2.0596,1.9143,2.883
3435.0,2.3171,-6.7765,1.7843,-2.0596,1.9143,2.883
3440.0,2.3171,-6.7765,1.7843,-2.0596,1.9143,2.883
3444.0,2.3171,-6.7765,1.7843,-2.0596,1.9143,2.883
3450.0,2.3171,-6.7765,1.7843,-2.0596,1.9143,2.883
3455.0,2.3171,-6.7765,1.7843,-2.0596,1.9143,2.883
3460.0,0.0949,-13.0687,6.0826,-2.6876,-0.2353,2.5409
3464.0,0.0949,-13.0687,6.0826,-2.6876,-0.2353,2.5409
3469.0,0.0949,-13.0687,6.0826,-2.6876,-0.2353,2.5409
3475.0,0.0949,-13.0687,6.0826,-2.6876,-0.2353,2.5409
3481.0,0.0949,-13.0687,6.0826,-2.6876,-0.2353,2.5409
3485.0,0.0949,-13.0687,6.0826,-2.6876,-0.2353,2.5409
3490.0,-0.9731,-12.8685,4.3244,-2.6876,-0.2353,2.5409
3494.0,-0.9731,-12.8685,4.3244,-3.6644,-1.7698,3.4046
3500.0,-0.9731,-12.8685,4.3244,-3.6644,-1.7698,3.4046
3504.0,-0.9731,-12.8685,4.3244,-3.6644,-1.7698,3.4046
3509.0,-0.9731,-12.8685,4.3244,-3.6644,-1.7698,3.4046
3516.0,-3.0276,-15.1422,9.4521,-3.6644,-1.7698,3.4046
3520.0,-3.0276,-15.1422,9.4521,-3.6644,-1.7698,3.4046
3525.0,-3.0276,-15.1422,9.4521,-3.3791,-0.0142,2.0779
3530.0,-3.0276,-15.1422,9.4521,-3.3791,-0.0142,2.0779
3535.0,-3.0276,-15.1422,9.4521,-3.3791,-0.0142,2.0779
3539.0,-3.7987,-14.637,6.8503,-3.3791,-0.0142,2.0779
3544.0,-3.7987,-14.637,6.8503,-3.3791,-0.0142,2.0779
3550.0,-3.7987,-14.637,6.8503,-3.3791,-0.0142,2.0779
3555.0,-3.7987,-14.637,6.8503,-3.0877,5.0487,2.8982
3560.0,-3.7987,-14.637,6.8503,-3.0877,5.0487,2.8982
3564.0,-3.7987,-14.637,6.8503,-3.0877,5.0487,2.8982
3569.0,-2.5727,-12.6969,0.9028,-3.0877,5.0487,2.8982
3575.0,-2.5727,-12.6969,0.9028,-3.0877,5.0487,2.8982
3580.0,-2.5727,-12.6969,0.9028,-3.0877,5.0487,2.8982
3586.0,-2.5727,-12.6969,0.9028,-3.0877,5.0487,2.8982
3590.0,-2.5727,-12.6969,0.9028,-1.4732,8.2332,0.9196
3595.0,-5.6282,-10.7186,-4.8694,-1.4732,8.2332,0.9196
3599.0,-5.6282,-10.7186,-4.8694,-1.4732,8.2332,0.9196
3605.0,-5.6282,-10.7186,-4.8694,-1.4732,8.2332,0.9196
3610.0,-5.6282,-10.7186,-4.8694,-1.4732,8.2332,0.9196
3615.0,-5.6282,-10.7186,-4.8694,-1.4732,8.2332,0.9196
3620.0,-2.6924,-7.0053,-5.0637,0.0912,1.0554,0.368
3625.0,-2.6924,-7.0053,-5.0637,0.0912,1.0554,0.368
3630.0,-2.6924,-7.0053,-5.0637,0.0912,1.0554,0.368
3634.0,-2.6924,-7.0053,-5.0637,0.0912,1.0554,0.368
3640.0,-2.6924,-7.0053,-5.0637,0.0912,1.0554,0.368
3644.0,-2.6924,-7.0053,-5.0637,0.0912,1.0554,0.368
3650.0,-5.6857,-13.9076,-10.67,-0.3339,-0.2702,-1.0583
3654.0,-5.6857,-13.9076,-10.67,-0.3339,-0.2702,-1.0583
3660.0,-5.6857,-13.9076,-10.67,-0.3339,-0.2702,-1.0583
3665.0,-5.6857,-13.9076,-10.67,-0.3339,-0.2702,-1.0583
3670.0,-5.6857,-13.9076,-10.67,-0.3339,-0.2702,-1.0583
3675.0,-5.9634,-12.735,-1.1824,-0.3339,-0.2702,-1.0583
3679.0,-5.9634,-12.735,-1.1824,-0.1739,-2.0582,-1.726
3685.0,-5.9634,-12.735,-1.1824,-0.1739,-2.0582,-1.726
3690.0,-5.9634,-12.735,-1.1824,-0.1739,-2.0582,-1.726
3695.0,-5.9634,-12.735,-1.1824,-0.1739,-2.0582,-1.726
3700.0,-5.9634,-12.735,-1.1824,-0.1739,-2.0582,-1.726
3705.0,-8.813,-14.1936,5.3338,-0.1739,-2.0582,-1.726
3710.0,-8.813,-14.1936,5.3338,1.0411,-1.0997,-1.1995
3714.0,-8.813,-14.1936,5.3338,1.0411,-1.0997,-1.1995
3720.0,-8.813,-14.1936,5.3338,1.0411,-1.0997,-1.1995
3725.0,-8.813,-14.1936,5.3338,1.0411,-1.0997,-1.1995
3729.0,-8.813,-14.1936,5.3338,1.0411,-1.0997,-1.1995
3735.0,-8.813,-14.1936,5.3338,1.0411,-1.0997,-1.1995
3740.0,-8.9854,-12.7446,6.2532,1.0411,-1.0997,-1.1995
3745.0,-8.9854,-12.7446,6.2532,1.9544,2.4128,-1.4328
3750.0,-8.9854,-12.7446,6.2532,1.9544,2.4128,-1.4328
3755.0,-8.9854,-12.7446,6.2532,1.9544,2.4128,-1.4328
3760.0,-8.9854,-12.7446,6.2532,1.9544,2.4128,-1.4328
3765.0,-5.3456,-12.7779,3.0875,1.9544,2.4128,-1.4328
3770.0,-5.3456,-12.7779,3.0875,1.9544,2.4128,-1.4328
3775.0,-5.3456,-12.7779,3.0875,2.1957,4.246,-2.9001
3780.0,-5.3456,-12.7779,3.0875,2.1957,4.246,-2.9001
3785.0,-5.3456,-12.7779,3.0875,2.1957,4.246,-2.9001
3790.0,-5.3456,-12.7779,3.0875,2.1957,4.246,-2.9001
3796.0,-3.0229,-9.5699,0.5853,2.1957,4.246,-2.9001
3800.0,-3.0229,-9.5699,0.5853,2.1957,4.246,-2.9001
3804.0,-3.0229,-9.5699,0.5853,0.8218,2.2448,-2.9991
3810.0,-3.0229,-9.5699,0.5853,0.8218,2.2448,-2.9991
3815.0,-3.0229,-9.5699,0.5853,0.8218,2.2448,-2.9991
3820.0,-3.2575,-10.6996,2.5235,0.8218,2.2448,-2.9991
3824.0,-3.2575,-10.6996,2.5235,0.8218,2.2448,-2.9991
3831.0,-3.2575,-10.6996,2.5235,0.8218,2.2448,-2.9991
3835.0,-3.2575,-10.6996,2.5235,-0.943,3.0725,-2.5006
3840.0,-3.2575,-10.6996,2.5235,-0.943,3.0725,-2.5006
3845.0,-5.178,-12.5539,0.9312,-0.943,3.0725,-2.5006
3850.0,-5.178,-12.5539,0.9312,-0.943,3.0725,-2.5006
3855.0,-5.178,-12.5539,0.9312,-0.943,3.0725,-2.5006
3860.0,-5.178,-12.5539,0.9312,-0.943,3.0725,-2.5006
3865.0,-5.178,-12.5539,0.9312,-0.7243,5.2674,-1.8201
3870.0,-5.178,-12.5539,0.9312,-0.7243,5.2674,-1.8201
3875.0,-5.609,-11.529,-3.1539,-0.7243,5.2674,-1.8201
3880.0,-5.609,-11.529,-3.1539,-0.7243,5.2674,-1.8201
3885.0,-5.609,-11.529,-3.1539,-0.7243,5.2674,-1.8201
3890.0,-5.609,-11.529,-3.1539,-0.7243,5.2674,-1.8201
3895.0,-5.609,-11.529,-3.1539,0.7094,2.5832,-3.1023
3900.0,-4.565,-11.7101,-4.8267,0.7094,2.5832,-3.1023
3905.0,-4.565,-11.7101,-4.8267,0.7094,2.5832,-3.1023
3909.0,-4.565,-11.7101,-4.8267,0.7094,2.5832,-3.1023
3914.0,-4.565,-11.7101,-4.8267,0.7094,2.5832,-3.1023
3920.0,-4.565,-11.7101,-4.8267,0.7094,2.5832,-3.1023
3925.0,-2.1273,-11.3336,2.0544,0.7094,2.5832,-3.1023
3930.0,-2.1273,-11.3336,2.0544,0.8615,0.7329,-2.3846
3935.0,-2.1273,-11.3336,2.0544,0.8615,0.7329,-2.3846
3940.0,-2.1273,-11.3336,2.0544,0.8615,0.7329,-2.3846
3945.0,-2.1273,-11.3336,2.0544,0.8615,0.7329,-2.3846
3950.0,-2.1273,-11.3336,2.0544,0.8615,0.7329,-2.3846
3955.0,-2.5679,-10.7949,-1.7985,0.8615,0.7329,-2.3846
3960.0,-2.5679,-10.7949,-1.7985,0.4993,1.3297,-3.1549
3965.0,-2.5679,-10.7949,-1.7985,0.4993,1.3297,-3.1549
3970.0,-2.5679,-10.7949,-1.7985,0.4993,1.3297,-3.1549
3975.0,-2.5679,-10.7949,-1.7985,0.4993,1.3297,-3.1549
3980.0,-4.359,-10.9951,-3.1775,0.4993,1.3297,-3.1549
3985.0,-4.359,-10.9951,-3.1775,0.4993,1.3297,-3.1549
3990.0,-4.359,-10.9951,-3.1775,1.3502,1.7488,-2.2728
3995.0,-4.359,-10.9951,-3.1775,1.3502,1.7488,-2.2728
4000.0,-4.359,-10.9951,-3.1775,1.3502,1.7488,-2.2728
4006.0,-4.7997,-8.1922,-2.5567,1.3502,1.7488,-2.2728
4010.0,-4.7997,-8.1922,-2.5567,1.3502,1.7488,-2.2728
4016.0,-4.7997,-8.1922,-2.5567,1.3502,1.7488,-2.2728
4020.0,-4.7997,-8.1922,-2.5567,1.3502,1.7488,-2.2728
4025.0,-4.7997,-8.1922,-2.5567,2.0765,1.2729,-1.9948
4030.0,-4.7997,-8.1922,-2.5567,2.0765,1.2729,-1.9948
4035.0,-1.7824,-5.6372,2.7463,2.0765,1.2729,-1.9948
4039.0,-1.7824,-5.6372,2.7463,2.0765,1.2729,-1.9948
4044.0,-1.7824,-5.6372,2.7463,2.0765,1.2729,-1.9948
4050.0,-1.7824,-5.6372,2.7463,2.0765,1.2729,-1.9948
4055.0,-1.7824,-5.6372,2.7463,1.5976,2.9345,-0.8531
4060.0,-0.451,-4.3359,-0.1445,1.5976,2.9345,-0.8531
4065.0,-0.451,-4.3359,-0.1445,1.5976,2.9345,-0.8531
4070.0,-0.451,-4.3359,-0.1445,1.5976,2.9345,-0.8531
4074.0,-0.451,-4.3359,-0.1445,1.5976,2.9345,-0.8531
4080.0,-0.451,-4.3359,-0.1445,1.5976,2.9345,-0.8531
4084.0,-0.451,-4.3359,-0.1445,1.2415,1.0047,0.2617
4090.0,0.7942,-2.882,-0.0782,1.2415,1.0047,0.2617
4094.0,0.7942,-2.882,-0.0782,1.2415,1.0047,0.2617
4099.0,0.7942,-2.882,-0.0782,1.2415,1.0047,0.2617
4105.0,0.7942,-2.882,-0.0782,1.2415,1.0047,0.2617
4110.0,0.7942,-2.882,-0.0782,1.2415,1.0047,0.2617
4114.0,1.7472,-2.1336,0.2488,0.9367,0.7121,0.9697
4119.0,1.7472,-2.1336,0.2488,0.9367,0.7121,0.9697
4124.0,1.7472,-2.1336,0.2488,0.9367,0.7121,0.9697
4130.0,1.7472,-2.1336,0.2488,0.9367,0.7121,0.9697
4135.0,1.7472,-2.1336,0.2488,0.9367,0.7121,0.9697
4140.0,0.344,-0.8418,-3.8647,0.9367,0.7121,0.9697
4144.0,0.344,-0.8418,-3.8647,0.8438,1.5246,2.5549
4150.0,0.344,-0.8418,-3.8647,0.8438,1.5246,2.5549
4155.0,0.344,-0.8418,-3.8647,0.8438,1.5246,2.5549
4160.0,0.344,-0.8418,-3.8647,0.8438,1.5246,2.5549
4165.0,0.344,-0.8418,-3.8647,0.8438,1.5246,2.5549
4170.0,-3.1474,-1.8286,-6.1631,0.8438,1.5246,2.5549
4175.0,-3.1474,-1.8286,-6.1631,0.0839,1.9388,3.9062
4180.0,-3.1474,-1.8286,-6.1631,0.0839,1.9388,3.9062
4184.0,-3.1474,-1.8286,-6.1631,0.0839,1.9388,3.9062
4190.0,-3.1474,-1.8286,-6.1631,0.0839,1.9388,3.9062
4195.0,-3.1474,-1.8286,-6.1631,0.0839,1.9388,3.9062
4200.0,-4.9098,-4.9413,-12.414,0.0839,1.9388,3.9062
4205.0,-4.9098,-4.9413,-12.414,0.0839,1.9388,3.9062
4210.0,-4.9098,-4.9413,-12.414,-0.114,1.3603,3.0565
4215.0,-4.9098,-4.9413,-12.414,-0.114,1.3603,3.0565
4220.0,-4.9098,-4.9413,-12.414,-0.114,1.3603,3.0565
4224.0,-4.0669,-8.0826,-11.6462,-0.114,1.3603,3.0565
4229.0,-4.0669,-8.0826,-11.6462,-0.114,1.3603,3.0565
4235.0,-4.0669,-8.0826,-11.6462,-0.114,1.3603,3.0565
4240.0,-4.0669,-8.0826,-11.6462,0.3869,-2.7533,0.8176
4245.0,-4.0669,-8.0826,-11.6462,0.3869,-2.7533,0.8176
4250.0,-0.9827,-14.1936,-16.7502,0.3869,-2.7533,0.8176
4255.0,-0.9827,-14.1936,-16.7502,0.3869,-2.7533,0.8176
4260.0,-0.9827,-14.1936,-16.7502,0.3869,-2.7533,0.8176
4265.0,-0.9827,-14.1936,-16.7502,0.3869,-2.7533,0.8176
4270.0,-0.9827,-14.1936,-16.7502,-0.5826,-0.9586,-0.5898
4274.0,-0.9827,-14.1936,-16.7502,-0.5826,-0.9586,-0.5898
4280.0,1.9627,-18.0738,6.8266,-0.5826,-0.9586,-0.5898
4285.0,1.9627,-18.0738,6.8266,-0.5826,-0.9586,-0.5898
4290.0,1.9627,-18.0738,6.8266,-0.5826,-0.9586,-0.5898
4294.0,1.9627,-18.0738,6.8266,-0.5826,-0.9586,-0.5898
4300.0,1.9627,-18.0738,6.8266,-0.5826,-0.9586,-0.5898
4306.0,2.1399,-14.5512,4.7651,-3.2429,-1.7222,2.5036
4310.0,2.1399,-14.5512,4.7651,-3.2429,-1.7222,2.5036
4314.0,2.1399,-14.5512,4.7651,-3.2429,-1.7222,2.5036
4319.0,2.1399,-14.5512,4.7651,-3.2429,-1.7222,2.5036
4325.0,2.1399,-14.5512,4.7651,-3.2429,-1.7222,2.5036
4331.0,-0.5325,-8.197,0.6184,-2.8593,0.4397,1.2501
4335.0,-0.5325,-8.197,0.6184,-2.8593,0.4397,1.2501
4340.0,-0.5325,-8.197,0.6184,-2.8593,0.4397,1.2501
4345.0,-0.5325,-8.197,0.6184,-2.8593,0.4397,1.2501
4350.0,-0.5325,-8.197,0.6184,-2.8593,0.4397,1.2501
4355.0,-0.5325,-8.197,0.6184,-2.8593,0.4397,1.2501
4360.0,-2.1416,-10.3611,4.258,-2.8593,0.4397,1.2501
4364.0,-2.1416,-10.3611,4.258,-1.0548,2.4843,1.3265
4370.0,-2.1416,-10.3611,4.258,-1.0548,2.4843,1.3265
4375.0,-2.1416,-10.3611,4.258,-1.0548,2.4843,1.3265
4380.0,-2.1416,-10.3611,4.258,-1.0548,2.4843,1.3265
4385.0,-1.7298,-14.0411,3.8457,-1.0548,2.4843,1.3265
4389.0,-1.7298,-14.0411,3.8457,-1.0548,2.4843,1.3265
4395.0,-1.7298,-14.0411,3.8457,-0.3498,3.4641,1.6906
4400.0,-1.7298,-14.0411,3.8457,-0.3498,3.4641,1.6906
4405.0,-1.7298,-14.0411,3.8457,-0.3498,3.4641,1.6906
4410.0,-1.5143,-11.6005,1.8932,-0.3498,3.4641,1.6906
4415.0,-1.5143,-11.6005,1.8932,-0.3498,3.4641,1.6906
4420.0,-1.5143,-11.6005,1.8932,-0.3498,3.4641,1.6906
4425.0,-1.5143,-11.6005,1.8932,-0.0597,3.2918,2.043
4430.0,-1.5143,-11.6005,1.8932,-0.0597,3.2918,2.043
4435.0,-1.5143,-11.6005,1.8932,-0.0597,3.2918,2.043
4440.0,-1.5574,-8.6069,0.609,-0.0597,3.2918,2.043
4445.0,-1.5574,-8.6069,0.609,-0.0597,3.2918,2.043
4450.0,-1.5574,-8.6069,0.609,-0.0597,3.2918,2.043
4455.0,-1.5574,-8.6069,0.609,0.4284,2.7378,2.3497
4460.0,-1.5574,-8.6069,0.609,0.4284,2.7378,2.3497
4465.0,0.5451,-8.2018,-8.1014,0.4284,2.7378,2.3497
4469.0,0.5451,-8.2018,-8.1014,0.4284,2.7378,2.3497
4475.0,0.5451,-8.2018,-8.1014,0.4284,2.7378,2.3497
4480.0,0.5451,-8.2018,-8.1014,0.4284,2.7378,2.3497
4485.0,0.5451,-8.2018,-8.1014,0.6526,0.0316,2.5843
4490.0,0.4733,-7.7966,-5.8504,0.6526,0.0316,2.5843
4495.0,0.4733,-7.7966,-5.8504,0.6526,0.0316,2.5843
4500.0,0.4733,-7.7966,-5.8504,0.6526,0.0316,2.5843
4509.0,0.4733,-7.7966,-5.8504,0.6526,0.0316,2.5843
4510.0,0.4733,-7.7966,-5.8504,0.6526,0.0316,2.5843
4516.0,0.4733,-7.7966,-5.8504,0.5708,-0.7228,1.8255
4520.0,-0.4894,-8.0731,-0.9644,0.5708,-0.7228,1.8255
4525.0,-0.4894,-8.0731,-0.9644,0.5708,-0.7228,1.8255
4530.0,-0.4894,-8.0731,-0.9644,0.5708,-0.7228,1.8255
4535.0,-0.4894,-8.0731,-0.9644,0.5708,-0.7228,1.8255
4539.0,-0.4894,-8.0731,-0.9644,0.5708,-0.7228,1.8255
4545.0,-0.02,-7.9968,0.5142,0.5708,-0.7228,1.8255
4549.0,-0.02,-7.9968,0.5142,0.5164,-0.4888,1.514
4554.0,-0.02,-7.9968,0.5142,0.5164,-0.4888,1.514
4560.0,-0.02,-7.9968,0.5142,0.5164,-0.4888,1.514
4565.0,-0.02,-7.9968,0.5142,0.5164,-0.4888,1.514
4569.0,-0.02,-7.9968,0.5142,0.5164,-0.4888,1.514
4575.0,-0.0583,-8.0206,0.1398,0.5164,-0.4888,1.514
4580.0,-0.0583,-8.0206,0.1398,0.4364,-0.5609,1.7675
4584.0,-0.0583,-8.0206,0.1398,0.4364,-0.5609,1.7675
4590.0,-0.0583,-8.0206,0.1398,0.4364,-0.5609,1.7675
4595.0,-0.0583,-8.0206,0.1398,0.4364,-0.5609,1.7675
4599.0,-0.4941,-9.0884,0.1114,0.4364,-0.5609,1.7675
4605.0,-0.4941,-9.0884,0.1114,0.4364,-0.5609,1.7675
4609.0,-0.4941,-9.0884,0.1114,0.4156,-1.0685,2.0045
4615.0,-0.4941,-9.0884,0.1114,0.4156,-1.0685,2.0045
4620.0,-0.4941,-9.0884,0.1114,0.4156,-1.0685,2.0045
4625.0,-1.1551,-10.2324,1.1445,0.4156,-1.0685,2.0045
4630.0,-1.1551,-10.2324,1.1445,0.4156,-1.0685,2.0045
4635.0,-1.1551,-10.2324,1.1445,0.4156,-1.0685,2.0045
4640.0,-1.1551,-10.2324,1.1445,0.2965,-0.5817,1.6515
4644.0,-1.1551,-10.2324,1.1445,0.2965,-0.5817,1.6515
4649.0,-1.1551,-10.2324,1.1445,0.2965,-0.5817,1.6515
4654.0,-0.2068,-9.5317,1.1919,0.2965,-0.5817,1.6515
4660.0,-0.2068,-9.5317,1.1919,0.2965,-0.5817,1.6515
4665.0,-0.2068,-9.5317,1.1919,0.2965,-0.5817,1.6515
4670.0,-0.2068,-9.5317,1.1919,0.2965,-0.5817,1.6515
4674.0,-0.2068,-9.5317,1.1919,0.1211,0.8349,1.6869
4679.0,1.8622,-9.7367,1.3767,0.1211,0.8349,1.6869
4685.0,1.8622,-9.7367,1.3767,0.1211,0.8349,1.6869
4690.0,1.8622,-9.7367,1.3767,0.1211,0.8349,1.6869
4695.0,1.8622,-9.7367,1.3767,0.1211,0.8349,1.6869
4700.0,1.8622,-9.7367,1.3767,0.1211,0.8349,1.6869
4705.0,0.8947,-11.0428,-1.1824,-0.3364,2.1904,1.8127
4709.0,0.8947,-11.0428,-1.1824,-0.3364,2.1904,1.8127
4715.0,0.8947,-11.0428,-1.1824,-0.3364,2.1904,1.8127
4720.0,0.8947,-11.0428,-1.1824,-0.3364,2.1904,1.8127
4725.0,0.8947,-11.0428,-1.1824,-0.3364,2.1904,1.8127
4730.0,0.8947,-11.0428,-1.1824,-0.3364,2.1904,1.8127
4735.0,-0.633,-10.876,-3.3055,-0.3657,1.7335,1.0204
4740.0,-0.633,-10.876,-3.3055,-0.3657,1.7335,1.0204
4745.0,-0.633,-10.876,-3.3055,-0.3657,1.7335,1.0204
4750.0,-0.633,-10.876,-3.3055,-0.3657,1.7335,1.0204
4755.0,-0.633,-10.876,-3.3055,-0.3657,1.7335,1.0204
4760.0,-0.633,-10.876,-3.3055,-0.3657,1.7335,1.0204
4765.0,-0.633,-10.876,-3.3055,-0.3657,1.7335,1.0204
4770.0,-1.998,-12.2345,-2.7131,-0.5606,-0.1724,0.7388
4775.0,-1.998,-12.2345,-2.7131,-0.5606,-0.1724,0.7388
4779.0,-1.998,-12.2345,-2.7131,-0.5606,-0.1724,0.7388
4785.0,-1.998,-12.2345,-2.7131,-0.5606,-0.1724,0.7388
4790.0,-1.998,-12.2345,-2.7131,-0.5606,-0.1724,0.7388
4795.0,-2.6685,-11.8674,-1.1161,-0.5606,-0.1724,0.7388
4799.0,-2.6685,-11.8674,-1.1161,-0.5606,-0.1724,0.7388
4805.0,-2.6685,-11.8674,-1.1161,-0.191,-0.5163,-0.0535
4810.0,-2.6685,-11.8674,-1.1161,-0.191,-0.5163,-0.0535
4814.0,-2.6685,-11.8674,-1.1161,-0.191,-0.5163,-0.0535
4820.0,-2.6685,-11.8674,-1.1161,-0.191,-0.5163,-0.0535
4825.0,-3.1617,-9.7843,0.263,-0.191,-0.5163,-0.0535
4830.0,-3.1617,-9.7843,0.263,-0.191,-0.5163,-0.0535
4834.0,-3.1617,-9.7843,0.263,-0.4793,-0.4283,-0.4915
4839.0,-3.1617,-9.7843,0.263,-0.4793,-0.4283,-0.4915
4845.0,-3.1617,-9.7843,0.263,-0.4793,-0.4283,-0.4915
4850.0,-4.5171,-11.6482,1.9975,-0.4793,-0.4283,-0.4915
4855.0,-4.5171,-11.6482,1.9975,-0.4793,-0.4283,-0.4915
4859.0,-4.5171,-11.6482,1.9975,-0.4793,-0.4283,-0.4915
4865.0,-4.5171,-11.6482,1.9975,-0.1763,0.3071,-1.2056
4870.0,-4.5171,-11.6482,1.9975,-0.1763,0.3071,-1.2056
4874.0,-4.5171,-11.6482,1.9975,-0.1763,0.3071,-1.2056
4880.0,-5.8246,-15.3329,2.8174,-0.1763,0.3071,-1.2056
4885.0,-5.8246,-15.3329,2.8174,-0.1763,0.3071,-1.2056
4890.0,-5.8246,-15.3329,2.8174,-0.1763,0.3071,-1.2056
4894.0,-5.8246,-15.3329,2.8174,-0.1763,0.3071,-1.2056
4900.0,-5.8246,-15.3329,2.8174,0.1914,2.4513,-2.3064
4905.0,-2.2135,-11.6339,-1.0639,0.1914,2.4513,-2.3064
4910.0,-2.2135,-11.6339,-1.0639,0.1914,2.4513,-2.3064
4915.0,-2.2135,-11.6339,-1.0639,0.1914,2.4513,-2.3064
4920.0,-2.2135,-11.6339,-1.0639,0.1914,2.4513,-2.3064
4925.0,-2.2135,-11.6339,-1.0639,0.1914,2.4513,-2.3064
4930.0,-2.0698,-10.6471,-0.6564,-0.3767,3.9021,-3.7883
4935.0,-2.0698,-10.6471,-0.6564,-0.3767,3.9021,-3.7883
4939.0,-2.0698,-10.6471,-0.6564,-0.3767,3.9021,-3.7883
4946.0,-2.0698,-10.6471,-0.6564,-0.3767,3.9021,-3.7883
4950.0,-2.0698,-10.6471,-0.6564,-0.3767,3.9021,-3.7883
4955.0,-2.0698,-10.6471,-0.6564,-0.3767,3.9021,-3.7883
4960.0,-0.8773,-10.4994,0.8222,-0.0596,1.7995,-2.8995
4965.0,-0.8773,-10.4994,0.8222,-0.0596,1.7995,-2.8995
4969.0,-0.8773,-10.4994,0.8222,-0.0596,1.7995,-2.8995
4975.0,-0.8773,-10.4994,0.8222,-0.0596,1.7995,-2.8995
4980.0,-0.8773,-10.4994,0.8222,-0.0596,1.7995,-2.8995
4986.0,0.6696,-14.432,1.6895,-0.0596,1.7995,-2.8995
4990.0,0.6696,-14.432,1.6895,-0.4292,0.56,-2.4878
4995.0,0.6696,-14.432,1.6895,-0.4292,0.56,-2.4878
4999.0,0.6696,-14.432,1.6895,-0.4292,0.56,-2.4878
5005.0,0.6696,-14.432,1.6895,-0.4292,0.56,-2.4878
5010.0,0.6696,-14.432,1.6895,-0.4292,0.56,-2.4878
5015.0,1.5078,-15.9669,1.353,-0.4292,0.56,-2.4878
5020.0,1.5078,-15.9669,1.353,-1.3553,0.4415,-2.7828
5024.0,1.5078,-15.9669,1.353,-1.3553,0.4415,-2.7828
5030.0,1.5078,-15.9669,1.353,-1.3553,0.4415,-2.7828
5035.0,1.5078,-15.9669,1.353,-1.3553,0.4415,-2.7828
5040.0,2.1016,-11.1858,0.6516,-1.3553,0.4415,-2.7828
5045.0,2.1016,-11.1858,0.6516,-1.3553,0.4415,-2.7828
5050.0,2.1016,-11.1858,0.6516,-1.7725,1.8294,-3.9044
5055.0,2.1016,-11.1858,0.6516,-1.7725,1.8294,-3.9044
5060.0,2.1016,-11.1858,0.6516,-1.7725,1.8294,-3.9044
5064.0,2.9302,-9.0121,0.0782,-1.7725,1.8294,-3.9044
5070.0,2.9302,-9.0121,0.0782,-1.7725,1.8294,-3.9044
5075.0,2.9302,-9.0121,0.0782,-1.7725,1.8294,-3.9044
5080.0,2.9302,-9.0121,0.0782,-2.3907,1.1801,-3.4322
5085.0,2.9302,-9.0121,0.0782,-2.3907,1.1801,-3.4322
5090.0,2.9302,-9.0121,0.0782,-2.3907,1.1801,-3.4322
5095.0,2.0585,-7.8872,-0.5142,-2.3907,1.1801,-3.4322
5100.0,2.0585,-7.8872,-0.5142,-2.3907,1.1801,-3.4322
5105.0,2.0585,-7.8872,-0.5142,-2.3907,1.1801,-3.4322
5110.0,2.0585,-7.8872,-0.5142,-2.0334,0.7708,-2.3766
5115.0,2.0585,-7.8872,-0.5142,-2.0334,0.7708,-2.3766
5120.0,-0.9252,-9.198,0.6327,-2.0334,0.7708,-2.3766
5125.0,-0.9252,-9.198,0.6327,-2.0334,0.7708,-2.3766
5130.0,-0.9252,-9.198,0.6327,-2.0334,0.7708,-2.3766
5135.0,-0.9252,-9.198,0.6327,-2.0334,0.7708,-2.3766
5140.0,-0.9252,-9.198,0.6327,-2.0334,0.7708,-2.3766
5145.0,-0.9252,-9.198,0.6327,-0.2472,0.3536,-1.8916
5150.0,-3.066,-9.0932,-1.0544,-0.2472,0.3536,-1.8916
5155.0,-3.066,-9.0932,-1.0544,-0.2472,0.3536,-1.8916
5160.0,-3.066,-9.0932,-1.0544,-0.2472,0.3536,-1.8916
5164.0,-3.066,-9.0932,-1.0544,-0.2472,0.3536,-1.8916
5169.0,-3.066,-9.0932,-1.0544,-0.2472,0.3536,-1.8916
5174.0,-2.793,-8.1827,1.0924,0.9691,-0.3776,-1.5862
5180.0,-2.793,-8.1827,1.0924,0.9691,-0.3776,-1.5862
5185.0,-2.793,-8.1827,1.0924,0.9691,-0.3776,-1.5862
5190.0,-2.793,-8.1827,1.0924,0.9691,-0.3776,-1.5862
5195.0,-2.793,-8.1827,1.0924,0.9691,-0.3776,-1.5862
5200.0,-1.8734,-5.8756,3.097,0.9691,-0.3776,-1.5862
5205.0,-1.8734,-5.8756,3.097,1.2287,0.758,-0.5703
5209.0,-1.8734,-5.8756,3.097,1.2287,0.758,-0.5703
5214.0,-1.8734,-5.8756,3.097,1.2287,0.758,-0.5703
5220.0,-1.8734,-5.8756,3.097,1.2287,0.758,-0.5703
5225.0,-1.8734,-5.8756,3.097,1.2287,0.758,-0.5703
5230.0,0.7606,-2.5245,1.4004,1.2287,0.758,-0.5703
5235.0,0.7606,-2.5245,1.4004,0.6257,1.3835,0.0724
5240.0,0.7606,-2.5245,1.4004,0.6257,1.3835,0.0724
5245.0,0.7606,-2.5245,1.4004,0.6257,1.3835,0.0724
5249.0,0.7606,-2.5245,1.4004,0.6257,1.3835,0.0724
5254.0,1.321,-2.0764,0.6943,0.6257,1.3835,0.0724
5260.0,1.321,-2.0764,0.6943,0.6257,1.3835,0.0724
5265.0,1.321,-2.0764,0.6943,0.3869,0.7641,0.9373
5270.0,1.321,-2.0764,0.6943,0.3869,0.7641,0.9373
5274.0,1.321,-2.0764,0.6943,0.3869,0.7641,0.9373
5280.0,1.7281,-4.5552,0.2204,0.3869,0.7641,0.9373
5285.0,1.7281,-4.5552,0.2204,0.3869,0.7641,0.9373
5290.0,1.7281,-4.5552,0.2204,0.3869,0.7641,0.9373
5295.0,1.7281,-4.5552,0.2204,1.0039,0.8203,2.7498
5300.0,1.7281,-4.5552,0.2204,1.0039,0.8203,2.7498
5305.0,2.5997,-12.878,-1.2108,1.0039,0.8203,2.7498
5310.0,2.5997,-12.878,-1.2108,1.0039,0.8203,2.7498
5315.0,2.5997,-12.878,-1.2108,1.0039,0.8203,2.7498
5320.0,2.5997,-12.878,-1.2108,1.0039,0.8203,2.7498
5326.0,2.5997,-12.878,-1.2108,1.0039,0.8203,2.7498
5330.0,2.5997,-12.878,-1.2108,2.7565,0.9388,4.4022
5335.0,4.9177,-16.5771,-9.0113,2.7565,0.9388,4.4022
5339.0,4.9177,-16.5771,-9.0113,2.7565,0.9388,4.4022
5344.0,4.9177,-16.5771,-9.0113,2.7565,0.9388,4.4022
5350.0,4.9177,-16.5771,-9.0113,2.7565,0.9388,4.4022
5355.0,4.9177,-16.5771,-9.0113,2.7565,0.9388,4.4022
5360.0,9.7692,-15.0374,-23.6408,0.9226,-2.1125,-0.4915
5365.0,9.7692,-15.0374,-23.6408,0.9226,-2.1125,-0.4915
5369.0,9.7692,-15.0374,-23.6408,0.9226,-2.1125,-0.4915
5374.0,9.7692,-15.0374,-23.6408,0.9226,-2.1125,-0.4915
5380.0,9.7692,-15.0374,-23.6408,0.9226,-2.1125,-0.4915
5385.0,9.7692,-15.0374,-23.6408,0.9226,-2.1125,-0.4915
5389.0,5.8324,-11.5624,-7.3763,-0.5899,4.5069,-3.7682
5394.0,5.8324,-11.5624,-7.3763,-0.5899,4.5069,-3.7682
5400.0,5.8324,-11.5624,-7.3763,-0.5899,4.5069,-3.7682
5405.0,5.8324,-11.5624,-7.3763,-0.5899,4.5069,-3.7682
5410.0,5.8324,-11.5624,-7.3763,-0.5899,4.5069,-3.7682
5415.0,3.5767,-4.3264,-22.5271,-0.5899,4.5069,-3.7682
5420.0,3.5767,-4.3264,-22.5271,-0.2881,2.031,-0.1414
5425.0,3.5767,-4.3264,-22.5271,-0.2881,2.031,-0.1414
5430.0,3.5767,-4.3264,-22.5271,-0.2881,2.031,-0.1414
5435.0,3.5767,-4.3264,-22.5271,-0.2881,2.031,-0.1414
5441.0,3.251,-13.5263,6.2769,-0.2881,2.031,-0.1414
5445.0,3.251,-13.5263,6.2769,-0.2881,2.031,-0.1414
5449.0,3.251,-13.5263,6.2769,-0.2881,2.031,-0.1414
5454.0,3.251,-13.5263,6.2769,-1.0444,-7.8174,2.806
5460.0,3.251,-13.5263,6.2769,-1.0444,-7.8174,2.806
5465.0,3.251,-13.5263,6.2769,-1.0444,-7.8174,2.806
5470.0,4.1179,-17.764,9.7696,-1.0444,-7.8174,2.806
5475.0,4.1179,-17.764,9.7696,-1.0444,-7.8174,2.806
5480.0,4.1179,-17.764,9.7696,-1.0444,-7.8174,2.806
5486.0,4.1179,-17.764,9.7696,0.4541,-6.5132,0.28
5490.0,4.1179,-17.764,9.7696,0.4541,-6.5132,0.28
5495.0,4.1179,-17.764,9.7696,0.4541,-6.5132,0.28
5500.0,2.9828,-5.8279,6.675,0.4541,-6.5132,0.28
5505.0,2.9828,-5.8279,6.675,0.4541,-6.5132,0.28
5510.0,2.9828,-5.8279,6.675,0.4541,-6.5132,0.28
5515.0,2.9828,-5.8279,6.675,-0.3846,-2.9635,0.6374
5520.0,2.9828,-5.8279,6.675,-0.3846,-2.9635,0.6374
5524.0,0.4158,-3.8354,5.6703,-0.3846,-2.9635,0.6374
5529.0,0.4158,-3.8354,5.6703,-0.3846,-2.9635,0.6374
5535.0,0.4158,-3.8354,5.6703,-0.3846,-2.9635,0.6374
5540.0,0.4158,-3.8354,5.6703,-0.3846,-2.9635,0.6374
5545.0,0.4158,-3.8354,5.6703,-1.0034,0.0836,1.2477
5550.0,0.4158,-3.8354,5.6703,-1.0034,0.0836,1.2477
5554.0,-0.9683,-8.7309,6.9356,-1.0034,0.0836,1.2477
5560.0,-0.9683,-8.7309,6.9356,-1.0034,0.0836,1.2477
5565.0,-0.9683,-8.7309,6.9356,-1.0034,0.0836,1.2477
5570.0,-0.9683,-8.7309,6.9356,-1.0034,0.0836,1.2477
5575.0,-0.9683,-8.7309,6.9356,-0.8318,4.0389,1.3143
5579.0,-1.543,-13.4882,5.6561,-0.8318,4.0389,1.3143
5584.0,-1.543,-13.4882,5.6561,-0.8318,4.0389,1.3143
5590.0,-1.543,-13.4882,5.6561,-0.8318,4.0389,1.3143
5596.0,-1.543,-13.4882,5.6561,-0.8318,4.0389,1.3143
5600.0,-1.543,-13.4882,5.6561,-0.8318,4.0389,1.3143
5605.0,-1.6388,-11.6196,1.552,-0.329,5.1874,1.1389
5609.0,-1.6388,-11.6196,1.552,-0.329,5.1874,1.1389
5615.0,-1.6388,-11.6196,1.552,-0.329,5.1874,1.1389
5620.0,-1.6388,-11.6196,1.552,-0.329,5.1874,1.1389
5625.0,-1.6388,-11.6196,1.552,-0.329,5.1874,1.1389
5630.0,-1.5238,-10.3611,0.0213,-0.329,5.1874,1.1389
5635.0,-1.5238,-10.3611,0.0213,0.4956,4.7225,1.321
5642.0,-1.5238,-10.3611,0.0213,0.4956,4.7225,1.321
5645.0,-1.5238,-10.3611,0.0213,0.4956,4.7225,1.321
5650.0,-1.5238,-10.3611,0.0213,0.4956,4.7225,1.321
5655.0,-1.5238,-10.3611,0.0213,0.4956,4.7225,1.321
5660.0,-0.9539,-9.4459,-2.3245,0.4956,4.7225,1.321
5665.0,-0.9539,-9.4459,-2.3245,1.8298,2.4207,2.4187
5669.0,-0.9539,-9.4459,-2.3245,1.8298,2.4207,2.4187
5675.0,-0.9539,-9.4459,-2.3245,1.8298,2.4207,2.4187
5680.0,-0.9539,-9.4459,-2.3245,1.8298,2.4207,2.4187
5686.0,0.3488,-7.6107,-4.2817,1.8298,2.4207,2.4187
5690.0,0.3488,-7.6107,-4.2817,1.8298,2.4207,2.4187
5695.0,0.3488,-7.6107,-4.2817,1.8298,2.4207,2.4187
5700.0,0.3488,-7.6107,-4.2817,2.181,-2.4149,3.7309
5705.0,0.3488,-7.6107,-4.2817,2.181,-2.4149,3.7309
5710.0,0.3488,-7.6107,-4.2817,2.181,-2.4149,3.7309
5715.0,0.8851,-8.6356,-2.7795,2.181,-2.4149,3.7309
5720.0,0.8851,-8.6356,-2.7795,2.181,-2.4149,3.7309
5724.0,0.8851,-8.6356,-2.7795,2.181,-2.4149,3.7309
5729.0,0.8851,-8.6356,-2.7795,1.5329,-5.2768,3.0412
5746.0,1.4455,-10.3564,-3.0069,1.5329,-5.2768,3.0412
5748.0,1.4455,-10.3564,-3.0069,1.5329,-5.2768,3.0412
5749.0,1.4455,-10.3564,-3.0069,1.5329,-5.2768,3.0412
5750.0,1.4455,-10.3564,-3.0069,1.5329,-5.2768,3.0412
5756.0,1.4455,-10.3564,-3.0069,1.5329,-5.2768,3.0412
5760.0,1.4455,-10.3564,-3.0069,0.6966,-5.6317,-0.6509
5765.0,1.4455,-10.3564,-3.0069,0.6966,-5.6317,-0.6509
5770.0,3.1696,-12.7684,-1.1445,0.6966,-5.6317,-0.6509
5775.0,3.1696,-12.7684,-1.1445,0.6966,-5.6317,-0.6509
5779.0,3.1696,-12.7684,-1.1445,0.6966,-5.6317,-0.6509
5785.0,3.1696,-12.7684,-1.1445,0.6966,-5.6317,-0.6509
5789.0,3.1696,-12.7684,-1.1445,0.1242,-0.7784,1.6124
5795.0,0.4493,-9.9893,1.0924,0.1242,-0.7784,1.6124
5799.0,0.4493,-9.9893,1.0924,0.1242,-0.7784,1.6124
5805.0,0.4493,-9.9893,1.0924,0.1242,-0.7784,1.6124
5809.0,0.4493,-9.9893,1.0924,0.1242,-0.7784,1.6124
5815.0,0.4493,-9.9893,1.0924,0.1242,-0.7784,1.6124
5820.0,-0.111,-9.0407,0.5284,-0.2044,0.2369,0.9752
5825.0,-0.111,-9.0407,0.5284,-0.2044,0.2369,0.9752
5830.0,-0.111,-9.0407,0.5284,-0.2044,0.2369,0.9752
5835.0,-0.111,-9.0407,0.5284,-0.2044,0.2369,0.9752
5840.0,-0.111,-9.0407,0.5284,-0.2044,0.2369,0.9752
5846.0,-0.111,-9.0407,0.5284,-0.2044,0.2369,0.9752
5849.0,-0.1781,-8.4973,0.0782,-0.2044,0.2369,0.9752
5855.0,-0.1781,-8.4973,0.0782,-0.0798,0.0555,0.492
5860.0,-0.1781,-8.4973,0.0782,-0.0798,0.0555,0.492
5865.0,-0.1781,-8.4973,0.0782,-0.0798,0.0555,0.492
5870.0,-0.1781,-8.4973,0.0782,-0.0798,0.0555,0.492
5875.0,-0.9922,-10.0942,0.1967,-0.0798,0.0555,0.492
5879.0,-0.9922,-10.0942,0.1967,-0.0798,0.0555,0.492
5885.0,-0.9922,-10.0942,0.1967,-0.2747,-0.1626,0.5274
5890.0,-0.9922,-10.0942,0.1967,-0.2747,-0.1626,0.5274
5895.0,-0.9922,-10.0942,0.1967,-0.2747,-0.1626,0.5274
5900.0,-0.9922,-10.0942,0.1967,-0.2747,-0.1626,0.5274
5905.0,-2.0219,-11.8103,0.391,-0.2747,-0.1626,0.5274
5910.0,-2.0219,-11.8103,0.391,-0.2747,-0.1626,0.5274
5915.0,-2.0219,-11.8103,0.391,-0.1818,1.1013,1.2012
5920.0,-2.0219,-11.8103,0.391,-0.1818,1.1013,1.2012
5925.0,-2.0219,-11.8103,0.391,-0.1818,1.1013,1.2012
5930.0,-2.0123,-10.1562,-0.5995,-0.1818,1.1013,1.2012
5934.0,-2.0123,-10.1562,-0.5995,-0.1818,1.1013,1.2012
5940.0,-2.0123,-10.1562,-0.5995,-0.1818,1.1013,1.2012
5945.0,-2.0123,-10.1562,-0.5995,-0.1818,1.1013,1.2012
5950.0,-2.0123,-10.1562,-0.5995,-0.3651,1.4684,0.0076
5955.0,-2.4146,-9.9035,-0.9028,-0.3651,1.4684,0.0076
5960.0,-2.4146,-9.9035,-0.9028,-0.3651,1.4684,0.0076
5964.0,-2.4146,-9.9035,-0.9028,-0.3651,1.4684,0.0076
5970.0,-2.4146,-9.9035,-0.9028,-0.3651,1.4684,0.0076
5975.0,-2.4146,-9.9035,-0.9028,-0.3651,1.4684,0.0076
5980.0,-3.5114,-13.512,-0.1493,-0.5453,0.8588,-0.4169
5985.0,-3.5114,-13.512,-0.1493,-0.5453,0.8588,-0.4169
5990.0,-3.5114,-13.512,-0.1493,-0.5453,0.8588,-0.4169
5995.0,-3.5114,-13.512,-0.1493,-0.5453,0.8588,-0.4169
6000.0,-3.5114,-13.512,-0.1493,-0.5453,0.8588,-0.4169
6005.0,-3.5114,-13.512,-0.1493,-0.5453,0.8588,-0.4169
6009.0,-2.1464,-16.1671,-3.3624,0.0075,1.2937,-1.4457
6015.0,-2.1464,-16.1671,-3.3624,0.0075,1.2937,-1.4457
6020.0,-2.1464,-16.1671,-3.3624,0.0075,1.2937,-1.4457
6025.0,-2.1464,-16.1671,-3.3624,0.0075,1.2937,-1.4457
6030.0,-2.1464,-16.1671,-3.3624,0.0075,1.2937,-1.4457
6035.0,-0.5516,-12.1773,-2.3719,0.0075,1.2937,-1.4457
6040.0,-0.5516,-12.1773,-2.3719,-0.0138,1.6388,-3.0144
6045.0,-0.5516,-12.1773,-2.3719,-0.0138,1.6388,-3.0144
6050.0,-0.5516,-12.1773,-2.3719,-0.0138,1.6388,-3.0144
6055.0,-0.5516,-12.1773,-2.3719,-0.0138,1.6388,-3.0144
6061.0,-0.5516,-12.1773,-2.3719,-0.0138,1.6388,-3.0144
6064.0,-0.724,-10.4851,-0.3152,-0.0138,1.6388,-3.0144
6070.0,-0.724,-10.4851,-0.3152,0.1273,0.5814,-3.3052
6075.0,-0.724,-10.4851,-0.3152,0.1273,0.5814,-3.3052
6079.0,-0.724,-10.4851,-0.3152,0.1273,0.5814,-3.3052
6085.0,-0.724,-10.4851,-0.3152,0.1273,0.5814,-3.3052
6090.0,0.229,-10.7234,1.6042,0.1273,0.5814,-3.3052
6094.0,0.229,-10.7234,1.6042,0.1273,0.5814,-3.3052
6100.0,0.229,-10.7234,1.6042,0.459,-0.3654,-3.2092
6105.0,0.229,-10.7234,1.6042,0.459,-0.3654,-3.2092
6110.0,0.229,-10.7234,1.6042,0.459,-0.3654,-3.2092
6115.0,1.6466,-16.0241,3.4761,0.459,-0.3654,-3.2092
6120.0,1.6466,-16.0241,3.4761,0.459,-0.3654,-3.2092
6125.0,1.6466,-16.0241,3.4761,0.459,-0.3654,-3.2092
6129.0,1.6466,-16.0241,3.4761,0.459,-0.3654,-3.2092
6135.0,1.6466,-16.0241,3.4761,0.5329,-0.1284,-3.3632
6140.0,1.6466,-16.0241,3.4761,0.5329,-0.1284,-3.3632
6144.0,4.3573,-17.1443,2.8221,0.5329,-0.1284,-3.3632
6150.0,4.3573,-17.1443,2.8221,0.5329,-0.1284,-3.3632
6154.0,4.3573,-17.1443,2.8221,0.5329,-0.1284,-3.3632
6160.0,4.3573,-17.1443,2.8221,0.5329,-0.1284,-3.3632
6165.0,4.3573,-17.1443,2.8221,-0.9485,0.2375,-2.8507
6170.0,3.5815,-11.0762,2.7889,-0.9485,0.2375,-2.8507
6174.0,3.5815,-11.0762,2.7889,-0.9485,0.2375,-2.8507
6180.0,3.5815,-11.0762,2.7889,-0.9485,0.2375,-2.8507
6185.0,3.5815,-11.0762,2.7889,-0.9485,0.2375,-2.8507
6190.0,3.5815,-11.0762,2.7889,-0.9485,0.2375,-2.8507
6195.0,3.5815,-11.0762,2.7889,-1.6155,3.9345,-3.128
6199.0,3.0116,-7.1912,0.3104,-1.6155,3.9345,-3.128
6205.0,3.0116,-7.1912,0.3104,-1.6155,3.9345,-3.128
6210.0,3.0116,-7.1912,0.3104,-1.6155,3.9345,-3.128
6215.0,3.0116,-7.1912,0.3104,-1.6155,3.9345,-3.128
6220.0,3.0116,-7.1912,0.3104,-1.6155,3.9345,-3.128
6224.0,1.2252,-6.2807,-2.5236,-1.9136,3.3371,-2.7108
6230.0,1.2252,-6.2807,-2.5236,-1.9136,3.3371,-2.7108
6235.0,1.2252,-6.2807,-2.5236,-1.9136,3.3371,-2.7108
6240.0,1.2252,-6.2807,-2.5236,-1.9136,3.3371,-2.7108
6245.0,1.2252,-6.2807,-2.5236,-1.9136,3.3371,-2.7108
6249.0,-1.3323,-7.7632,-3.6988,-1.9136,3.3371,-2.7108
6256.0,-1.3323,-7.7632,-3.6988,-1.3632,1.1868,-2.5562
6260.0,-1.3323,-7.7632,-3.6988,-1.3632,1.1868,-2.5562
6264.0,-1.3323,-7.7632,-3.6988,-1.3632,1.1868,-2.5562
6269.0,-1.3323,-7.7632,-3.6988,-1.3632,1.1868,-2.5562
6275.0,-1.3323,-7.7632,-3.6988,-1.3632,1.1868,-2.5562
6280.0,-2.9845,-8.6499,-1.3625,-1.3632,1.1868,-2.5562
6285.0,-2.9845,-8.6499,-1.3625,-1.3632,1.1868,-2.5562
6289.0,-2.9845,-8.6499,-1.3625,-0.3553,-1.3825,-1.6534
6295.0,-2.9845,-8.6499,-1.3625,-0.3553,-1.3825,-1.6534
6300.0,-2.9845,-8.6499,-1.3625,-0.3553,-1.3825,-1.6534
6305.0,-2.9031,-8.0159,1.4336,-0.3553,-1.3825,-1.6534
6310.0,-2.9031,-8.0159,1.4336,-0.3553,-1.3825,-1.6534
6315.0,-2.9031,-8.0159,1.4336,-0.3553,-1.3825,-1.6534
6320.0,-2.9031,-8.0159,1.4336,0.36,-0.545,-0.7853
6325.0,-2.9031,-8.0159,1.4336,0.36,-0.545,-0.7853
6329.0,-1.3179,-6.7193,3.3813,0.36,-0.545,-0.7853
6335.0,-1.3179,-6.7193,3.3813,0.36,-0.545,-0.7853
6340.0,-1.3179,-6.7193,3.3813,0.36,-0.545,-0.7853
6345.0,-1.3179,-6.7193,3.3813,0.36,-0.545,-0.7853
6350.0,-1.3179,-6.7193,3.3813,0.5005,0.9901,-0.3479
6354.0,1.5509,-3.8688,1.334,0.5005,0.9901,-0.3479
6359.0,1.5509,-3.8688,1.334,0.5005,0.9901,-0.3479
6365.0,1.5509,-3.8688,1.334,0.5005,0.9901,-0.3479
6370.0,1.5509,-3.8688,1.334,0.5005,0.9901,-0.3479
6374.0,1.5509,-3.8688,1.334,0.5005,0.9901,-0.3479
6379.0,1.5509,-3.8688,1.334,0.2274,0.3963,0.3369
6384.0,2.4656,-3.721,0.5853,0.2274,0.3963,0.3369
6389.0,2.4656,-3.721,0.5853,0.2274,0.3963,0.3369
6395.0,2.4656,-3.721,0.5853,0.2274,0.3963,0.3369
6400.0,2.4656,-3.721,0.5853,0.2274,0.3963,0.3369
6404.0,2.4656,-3.721,0.5853,0.2274,0.3963,0.3369
6410.0,2.8296,-6.767,0.0924,1.1719,0.2143,1.8995
6414.0,2.8296,-6.767,0.0924,1.1719,0.2143,1.8995
6420.0,2.8296,-6.767,0.0924,1.1719,0.2143,1.8995
6425.0,2.8296,-6.767,0.0924,1.1719,0.2143,1.8995
6429.0,2.8296,-6.767,0.0924,1.1719,0.2143,1.8995
6435.0,2.5422,-9.8749,-2.116,1.1719,0.2143,1.8995
6440.0,2.5422,-9.8749,-2.116,2.5268,0.3273,4.1994
6445.0,2.5422,-9.8749,-2.116,2.5268,0.3273,4.1994
6450.0,2.5422,-9.8749,-2.116,2.5268,0.3273,4.1994
6454.0,2.5422,-9.8749,-2.116,2.5268,0.3273,4.1994
6460.0,3.8401,-13.7074,-7.1631,2.5268,0.3273,4.1994
6465.0,3.8401,-13.7074,-7.1631,2.5268,0.3273,4.1994
6470.0,3.8401,-13.7074,-7.1631,2.5268,0.3273,4.1994
6475.0,3.8401,-13.7074,-7.1631,1.9684,-0.6018,3.5354
6480.0,3.8401,-13.7074,-7.1631,1.9684,-0.6018,3.5354
6485.0,3.8401,-13.7074,-7.1631,1.9684,-0.6018,3.5354
6490.0,8.2318,-16.4674,-24.4417,1.9684,-0.6018,3.5354
6495.0,8.2318,-16.4674,-24.4417,1.9684,-0.6018,3.5354
6500.0,8.2318,-16.4674,-24.4417,1.9684,-0.6018,3.5354
6505.0,8.2318,-16.4674,-24.4417,-0.1867,0.4147,-3.0242
6510.0,8.2318,-16.4674,-24.4417,-0.1867,0.4147,-3.0242
6514.0,8.2318,-16.4674,-24.4417,-0.1867,0.4147,-3.0242
6519.0,7.2979,-13.1021,-5.2201,-0.1867,0.4147,-3.0242
6525.0,7.2979,-13.1021,-5.2201,-0.1867,0.4147,-3.0242
6531.0,7.2979,-13.1021,-5.2201,-0.1867,0.4147,-3.0242
6535.0,7.2979,-13.1021,-5.2201,-0.497,6.8086,-2.4927
6540.0,7.2979,-13.1021,-5.2201,-0.497,6.8086,-2.4927
6545.0,2.0058,-8.8501,-20.9253,-0.497,6.8086,-2.4927
6550.0,2.0058,-8.8501,-20.9253,-0.497,6.8086,-2.4927
6555.0,2.0058,-8.8501,-20.9253,-0.497,6.8086,-2.4927
6560.0,2.0058,-8.8501,-20.9253,-0.497,6.8086,-2.4927
6566.0,2.0058,-8.8501,-20.9253,-0.9973,-4.4595,2.1353
6569.0,2.0154,-11.7483,9.272,-0.9973,-4.4595,2.1353
6574.0,2.0154,-11.7483,9.272,-0.9973,-4.4595,2.1353
6579.0,2.0154,-11.7483,9.272,-0.9973,-4.4595,2.1353
6585.0,2.0154,-11.7483,9.272,-0.9973,-4.4595,2.1353
6590.0,2.0154,-11.7483,9.272,-0.9973,-4.4595,2.1353
6594.0,2.4512,-10.7949,7.4095,-0.1048,-6.8577,1.4987
6599.0,2.4512,-10.7949,7.4095,-0.1048,-6.8577,1.4987
6605.0,2.4512,-10.7949,7.4095,-0.1048,-6.8577,1.4987
6610.0,2.4512,-10.7949,7.4095,-0.1048,-6.8577,1.4987
6615.0,2.4512,-10.7949,7.4095,-0.1048,-6.8577,1.4987
6619.0,2.4512,-10.7949,7.4095,-0.1048,-6.8577,1.4987
6625.0,3.548,-6.3189,6.874,-0.0755,-3.7215,0.1536
6630.0,3.548,-6.3189,6.874,-0.0755,-3.7215,0.1536
6635.0,3.548,-6.3189,6.874,-0.0755,-3.7215,0.1536
6640.0,3.548,-6.3189,6.874,-0.0755,-3.7215,0.1536
6645.0,3.548,-6.3189,6.874,-0.0755,-3.7215,0.1536
6650.0,1.7281,-6.0663,4.7699,-0.0755,-3.7215,0.1536
6655.0,1.7281,-6.0663,4.7699,-1.0328,-1.5975,0.6533
6661.0,1.7281,-6.0663,4.7699,-1.0328,-1.5975,0.6533
6665.0,1.7281,-6.0663,4.7699,-1.0328,-1.5975,0.6533
6670.0,1.7281,-6.0663,4.7699,-1.0328,-1.5975,0.6533
6675.0,1.7281,-6.0663,4.7699,-1.0328,-1.5975,0.6533
6680.0,0.229,-9.8368,5.1585,-1.0328,-1.5975,0.6533
6685.0,0.229,-9.8368,5.1585,-1.0328,-1.5975,0.6533
6689.0,0.229,-9.8368,5.1585,-1.2399,0.6382,1.1847
6694.0,0.229,-9.8368,5.1585,-1.2399,0.6382,1.1847
6700.0,0.229,-9.8368,5.1585,-1.2399,0.6382,1.1847
6705.0,-0.5995,-13.3118,3.9216,-1.2399,0.6382,1.1847
6709.0,-0.5995,-13.3118,3.9216,-1.2399,0.6382,1.1847
6716.0,-0.5995,-13.3118,3.9216,-1.2399,0.6382,1.1847
6719.0,-0.5995,-13.3118,3.9216,-0.5703,2.3481,1.2049
6725.0,-0.5995,-13.3118,3.9216,-0.5703,2.3481,1.2049
6729.0,-1.179,-11.4956,1.3956,-0.5703,2.3481,1.2049
6735.0,-1.179,-11.4956,1.3956,-0.5703,2.3481,1.2049
6739.0,-1.179,-11.4956,1.3956,-0.5703,2.3481,1.2049
6744.0,-1.179,-11.4956,1.3956,-0.5703,2.3481,1.2049
6750.0,-1.179,-11.4956,1.3956,-0.037,2.6785,0.9758
6755.0,-1.179,-11.4956,1.3956,-0.037,2.6785,0.9758
6759.0,-1.2269,-9.9417,0.173,-0.037,2.6785,0.9758
6765.0,-1.2269,-9.9417,0.173,-0.037,2.6785,0.9758
6770.0,-1.2269,-9.9417,0.173,-0.037,2.6785,0.9758
6774.0,-1.2269,-9.9417,0.173,-0.037,2.6785,0.9758
6779.0,-1.2269,-9.9417,0.173,0.4547,1.9284,1.9593
6785.0,-1.3083,-9.341,-1.6516,0.4547,1.9284,1.9593
6789.0,-1.3083,-9.341,-1.6516,0.4547,1.9284,1.9593
6795.0,-1.3083,-9.341,-1.6516,0.4547,1.9284,1.9593
6800.0,-1.3083,-9.341,-1.6516,0.4547,1.9284,1.9593
6805.0,-1.3083,-9.341,-1.6516,0.4547,1.9284,1.9593
6809.0,-0.8869,-8.3829,-2.2013,0.5769,-0.7118,4.3081
6816.0,-0.8869,-8.3829,-2.2013,0.5769,-0.7118,4.3081
6821.0,-0.8869,-8.3829,-2.2013,0.5769,-0.7118,4.3081
6824.0,-0.8869,-8.3829,-2.2013,0.5769,-0.7118,4.3081
6830.0,-0.8869,-8.3829,-2.2013,0.5769,-0.7118,4.3081
6835.0,-0.8869,-8.3829,-0.718,0.5769,-0.7118,4.3081
6840.0,-1.3993,-9.2028,-0.718,0.5769,-0.7118,4.3081
6846.0,-1.3993,-9.2028,-0.718,0.8066,-1.6971,4.1902
6850.0,-1.3993,-9.2028,-0.718,0.8066,-1.6971,4.1902
6855.0,-1.3993,-9.2028,-0.718,0.8066,-1.6971,4.1902
6860.0,-1.3993,-9.2028,-0.718,0.8066,-1.6971,4.1902
6865.0,-0.5899,-9.627,-3.2155,0.8066,-1.6971,4.1902
6870.0,-0.5899,-9.627,-3.2155,0.8066,-1.6971,4.1902
6875.0,-0.5899,-9.627,-3.2155,0.9654,-2.6714,1.8542
6880.0,-0.5899,-9.627,-3.2155,0.9654,-2.6714,1.8542
6885.0,-0.5899,-9.627,-3.2155,0.9654,-2.6714,1.8542
6889.0,-0.5899,-9.627,-3.2155,0.9654,-2.6714,1.8542
6894.0,0.4206,-10.876,-2.0828,0.9654,-2.6714,1.8542
6900.0,0.4206,-10.876,-2.0828,0.9654,-2.6714,1.8542
6905.0,0.4206,-10.876,-2.0828,0.9263,-3.0887,0.7742
6910.0,0.4206,-10.876,-2.0828,0.9263,-3.0887,0.7742
6915.0,0.4206,-10.876,-2.0828,0.9263,-3.0887,0.7742
6920.0,2.2884,-11.5433,-1.7227,0.9263,-3.0887,0.7742
6925.0,2.2884,-11.5433,-1.7227,0.9263,-3.0887,0.7742
6930.0,2.2884,-11.5433,-1.7227,0.9263,-3.0887,0.7742
6934.0,2.2884,-11.5433,-1.7227,0.9263,-3.0887,0.7742
6939.0,2.2884,-11.5433,-1.7227,0.4565,-0.6739,2.2067
6945.0,0.9378,-11.1238,-0.0356,0.4565,-0.6739,2.2067
6950.0,0.9378,-11.1238,-0.0356,0.4565,-0.6739,2.2067
6955.0,0.9378,-11.1238,-0.0356,0.4565,-0.6739,2.2067
6960.0,0.9378,-11.1238,-0.0356,0.4565,-0.6739,2.2067
6965.0,0.9378,-11.1238,-0.0356,0.4565,-0.6739,2.2067
6970.0,0.9378,-11.1238,-0.0356,0.0595,0.3017,0.9819
6975.0,0.9762,-8.6975,-0.9502,0.0595,0.3017,0.9819
6980.0,0.9762,-8.6975,-0.9502,0.0595,0.3017,0.9819
6985.0,0.9762,-8.6975,-0.9502,0.0595,0.3017,0.9819
6990.0,0.9762,-8.6975,-0.9502,0.0595,0.3017,0.9819
6995.0,0.9762,-8.6975,-0.9502,0.0595,0.3017,0.9819
6999.0,0.9139,-9.1933,-1.5426,-0.2527,0.4727,0.1841
7005.0,0.9139,-9.1933,-1.5426,-0.2527,0.4727,0.1841
7009.0,0.9139,-9.1933,-1.5426,-0.2527,0.4727,0.1841
7015.0,0.9139,-9.1933,-1.5426,-0.2527,0.4727,0.1841
7020.0,0.9139,-9.1933,-1.5426,-0.2527,0.4727,0.1841
7024.0,0.9139,-9.1933,-1.5426,-0.2527,0.4727,0.1841
7030.0,-1.3658,-12.6015,-1.0781,-0.5264,0.5497,0.4969
7035.0,-1.3658,-12.6015,-1.0781,-0.5264,0.5497,0.4969
7040.0,-1.3658,-12.6015,-1.0781,-0.5264,0.5497,0.4969
7047.0,-1.3658,-12.6015,-1.0781,-0.5264,0.5497,0.4969
7050.0,-1.3658,-12.6015,-1.0781,-0.5264,0.5497,0.4969
7054.0,-2.5056,-10.1848,-0.5284,-0.5264,0.5497,0.4969
7060.0,-2.5056,-10.1848,-0.5284,-0.4091,-0.2145,-0.0419
7065.0,-2.5056,-10.1848,-0.5284,-0.4091,-0.2145,-0.0419
7069.0,-2.5056,-10.1848,-0.5284,-0.4091,-0.2145,-0.0419
7075.0,-2.5056,-10.1848,-0.5284,-0.4091,-0.2145,-0.0419
7079.0,-2.5056,-10.1848,-0.5284,-0.4091,-0.2145,-0.0419
7084.0,-2.3859,-8.6927,-0.372,-0.4091,-0.2145,-0.0419
7090.0,-2.3859,-8.6927,-0.372,-0.4378,-0.0081,-0.5984
7095.0,-2.3859,-8.6927,-0.372,-0.4378,-0.0081,-0.5984
7099.0,-2.3859,-8.6927,-0.372,-0.4378,-0.0081,-0.5984
7105.0,-2.3859,-8.6927,-0.372,-0.4378,-0.0081,-0.5984
7110.0,-3.2815,-13.6884,0.0498,-0.4378,-0.0081,-0.5984
7114.0,-3.2815,-13.6884,0.0498,-0.4378,-0.0081,-0.5984
7119.0,-3.2815,-13.6884,0.0498,-0.4042,1.2326,-2.2459
7125.0,-3.2815,-13.6884,0.0498,-0.4042,1.2326,-2.2459
7130.0,-3.2815,-13.6884,0.0498,-0.4042,1.2326,-2.2459
7135.0,-2.1991,-15.1279,-2.5283,-0.4042,1.2326,-2.2459
7139.0,-2.1991,-15.1279,-2.5283,-0.4042,1.2326,-2.2459
7145.0,-2.1991,-15.1279,-2.5283,-0.4042,1.2326,-2.2459
7150.0,-2.1991,-15.1279,-2.5283,-0.4042,1.2326,-2.2459
7154.0,-2.1991,-15.1279,-2.5283,-0.7536,3.1709,-4.241
7160.0,-2.2087,-13.5597,-1.1066,-0.7536,3.1709,-4.241
7164.0,-2.2087,-13.5597,-1.1066,-0.7536,3.1709,-4.241
7170.0,-2.2087,-13.5597,-1.1066,-0.7536,3.1709,-4.241
7175.0,-2.2087,-13.5597,-1.1066,-0.7536,3.1709,-4.241
7179.0,-2.2087,-13.5597,-1.1066,-0.7536,3.1709,-4.241
7184.0,-2.2087,-13.5597,-1.1066,-0.0248,1.9938,-3.9973
7190.0,-2.5344,-13.4548,0.7038,-0.0248,1.9938,-3.9973
7195.0,-2.5344,-13.4548,0.7038,-0.0248,1.9938,-3.9973
7200.0,-2.5344,-13.4548,0.7038,-0.0248,1.9938,-3.9973
7204.0,-2.5344,-13.4548,0.7038,-0.0248,1.9938,-3.9973
7210.0,-2.5344,-13.4548,0.7038,-0.0248,1.9938,-3.9973
7214.0,0.2195,-14.2556,1.4004,1.2244,0.626,-3.5287
7220.0,0.2195,-14.2556,1.4004,1.2244,0.626,-3.5287
7225.0,0.2195,-14.2556,1.4004,1.2244,0.626,-3.5287
7230.0,0.2195,-14.2556,1.4004,1.2244,0.626,-3.5287
7235.0,0.2195,-14.2556,1.4004,1.2244,0.626,-3.5287
7240.0,3.9694,-19.2703,1.9075,1.2244,0.626,-3.5287
7244.0,3.9694,-19.2703,1.9075,0.55,-1.3709,-3.1476
7250.0,3.9694,-19.2703,1.9075,0.55,-1.3709,-3.1476
7255.0,3.9694,-19.2703,1.9075,0.55,-1.3709,-3.1476
7260.0,3.9694,-19.2703,1.9075,0.55,-1.3709,-3.1476
7265.0,3.9694,-19.2703,1.9075,0.55,-1.3709,-3.1476
7269.0,3.3324,-15.2471,1.988,0.55,-1.3709,-3.1476
7275.0,3.3324,-15.2471,1.988,-0.4017,0.8099,-3.431
7280.0,3.3324,-15.2471,1.988,-0.4017,0.8099,-3.431
7285.0,3.3324,-15.2471,1.988,-0.4017,0.8099,-3.431
7290.0,3.3324,-15.2471,1.988,-0.4017,0.8099,-3.431
7295.0,1.6754,-9.5222,0.3673,-0.4017,0.8099,-3.431
7300.0,1.6754,-9.5222,0.3673,-0.4017,0.8099,-3.431
7305.0,1.6754,-9.5222,0.3673,-0.4017,0.8099,-3.431
7310.0,1.6754,-9.5222,0.3673,-1.2056,3.6303,-3.1585
7315.0,1.6754,-9.5222,0.3673,-1.2056,3.6303,-3.1585
7320.0,0.3296,-9.4936,-3.6041,-1.2056,3.6303,-3.1585
7325.0,0.3296,-9.4936,-3.6041,-1.2056,3.6303,-3.1585
7330.0,0.3296,-9.4936,-3.6041,-1.2056,3.6303,-3.1585
7335.0,0.3296,-9.4936,-3.6041,-1.2056,3.6303,-3.1585
7340.0,0.3296,-9.4936,-3.6041,-1.1348,0.5075,-2.6381
7345.0,0.3296,-9.4936,-3.6041,-1.1348,0.5075,-2.6381
7350.0,-0.6234,-8.8453,-1.2487,-1.1348,0.5075,-2.6381
7355.0,-0.6234,-8.8453,-1.2487,-1.1348,0.5075,-2.6381
7359.0,-0.6234,-8.8453,-1.2487,-1.1348,0.5075,-2.6381
7365.0,-0.6234,-8.8453,-1.2487,-0.5264,-1.4204,-2.3583
7370.0,-0.6234,-8.8453,-1.2487,-0.5264,-1.4204,-2.3583
7374.0,-1.5861,-8.402,1.6516,-0.5264,-1.4204,-2.3583
7380.0,-1.5861,-8.402,1.6516,-0.5264,-1.4204,-2.3583
7384.0,-1.5861,-8.402,1.6516,-0.5264,-1.4204,-2.3583
7389.0,-1.5861,-8.402,1.6516,-0.5264,-1.4204,-2.3583
7395.0,-1.5861,-8.402,1.6516,-0.5264,-1.4204,-2.3583
7400.0,-1.5861,-8.402,1.6516,0.1462,0.8129,-2.4927
7405.0,1.2683,-5.6801,2.7131,0.1462,0.8129,-2.4927
7410.0,1.2683,-5.6801,2.7131,0.1462,0.8129,-2.4927
7415.0,1.2683,-5.6801,2.7131,0.1462,0.8129,-2.4927
7420.0,1.2683,-5.6801,2.7131,0.1462,0.8129,-2.4927
7425.0,1.2683,-5.6801,2.7131,0.1462,0.8129,-2.4927
7429.0,2.7529,-2.6532,0.4004,-0.2478,1.9266,-1.8837
7435.0,2.7529,-2.6532,0.4004,-0.2478,1.9266,-1.8837
7439.0,2.7529,-2.6532,0.4004,-0.2478,1.9266,-1.8837
7445.0,2.7529,-2.6532,0.4004,-0.2478,1.9266,-1.8837
7450.0,2.7529,-2.6532,0.4004,-0.2478,1.9266,-1.8837
7456.0,2.3363,-0.8704,1.4715,-0.2478,1.9266,-1.8837
7460.0,2.3363,-0.8704,1.4715,-0.0816,1.1001,-0.9509
7465.0,2.3363,-0.8704,1.4715,-0.0816,1.1001,-0.9509
7470.0,2.3363,-0.8704,1.4715,-0.0816,1.1001,-0.9509
7475.0,2.3363,-0.8704,1.4715,-0.0816,1.1001,-0.9509
7480.0,2.3363,-0.8704,1.4715,-0.0816,1.1001,-0.9509
7485.0,3.4282,0.2355,1.5189,-0.0816,1.1001,-0.9509
7490.0,3.4282,0.2355,1.5189,-0.0816,1.1001,-0.9509
7495.0,3.4282,0.2355,1.5189,0.2482,0.1746,0.3326
7499.0,3.4282,0.2355,1.5189,0.2482,0.1746,0.3326
7505.0,3.4282,0.2355,1.5189,0.2482,0.1746,0.3326
7509.0,3.4282,0.2355,1.5189,0.2482,0.1746,0.3326
7515.0,3.6581,-0.6369,1.3009,0.2482,0.1746,0.3326
7519.0,3.6581,-0.6369,1.3009,0.2482,0.1746,0.3326
7525.0,3.6581,-0.6369,1.3009,0.2745,0.3407,1.1884
7530.0,3.6581,-0.6369,1.3009,0.2745,0.3407,1.1884
7535.0,3.6581,-0.6369,1.3009,0.2745,0.3407,1.1884
7540.0,2.1591,-3.1966,-0.1114,0.2745,0.3407,1.1884
7545.0,2.1591,-3.1966,-0.1114,0.2745,0.3407,1.1884
7549.0,2.1591,-3.1966,-0.1114,0.2745,0.3407,1.1884
7555.0,2.1591,-3.1966,-0.1114,0.2604,0.4592,1.7363
7559.0,2.1591,-3.1966,-0.1114,0.2604,0.4592,1.7363
7565.0,0.7558,-7.8919,-2.8221,0.2604,0.4592,1.7363
7569.0,0.7558,-7.8919,-2.8221,0.2604,0.4592,1.7363
7575.0,0.7558,-7.8919,-2.8221,0.2604,0.4592,1.7363
7580.0,0.7558,-7.8919,-2.8221,0.2604,0.4592,1.7363
7585.0,0.7558,-7.8919,-2.8221,1.1444,0.1288,2.9251
7590.0,0.7558,-7.8919,-2.8221,1.1444,0.1288,2.9251
7595.0,-1.0832,-11.5528,-9.1535,1.1444,0.1288,2.9251
7600.0,-1.0832,-11.5528,-9.1535,1.1444,0.1288,2.9251
7605.0,-1.0832,-11.5528,-9.1535,1.1444,0.1288,2.9251
7610.0,-1.0832,-11.5528,-9.1535,1.1444,0.1288,2.9251
7615.0,-1.0832,-11.5528,-9.1535,1.4095,-0.7002,3.5958
7620.0,-3.6359,-13.9362,-16.9161,1.4095,-0.7002,3.5958
7624.0,-3.6359,-13.9362,-16.9161,1.4095,-0.7002,3.5958
7630.0,-3.6359,-13.9362,-16.9161,1.4095,-0.7002,3.5958
7635.0,-3.6359,-13.9362,-16.9161,1.4095,-0.7002,3.5958
7640.0,-3.6359,-13.9362,-16.9161,1.4095,-0.7002,3.5958
7645.0,-3.6359,-13.9362,-16.9161,1.4095,-0.7002,3.5958
7650.0,-3.8945,-13.8075,-12.703,1.068,1.9217,0.4126
7655.0,-3.8945,-13.8075,-12.703,1.068,1.9217,0.4126
7660.0,-3.8945,-13.8075,-12.703,1.068,1.9217,0.4126
7665.0,-3.8945,-13.8075,-12.703,1.068,1.9217,0.4126
7670.0,-3.8945,-13.8075,-12.703,1.068,1.9217,0.4126
7674.0,1.4503,-9.975,-6.4001,1.068,1.9217,0.4126
7680.0,1.4503,-9.975,-6.4001,0.8047,1.0439,0.4725
7684.0,1.4503,-9.975,-6.4001,0.8047,1.0439,0.4725
7690.0,1.4503,-9.975,-6.4001,0.8047,1.0439,0.4725
7695.0,1.4503,-9.975,-6.4001,0.8047,1.0439,0.4725
7700.0,4.0652,-7.072,-8.4568,0.8047,1.0439,0.4725
7705.0,4.0652,-7.072,-8.4568,0.8047,1.0439,0.4725
7710.0,4.0652,-7.072,-8.4568,0.6679,-1.0209,0.2611
7715.0,4.0652,-7.072,-8.4568,0.6679,-1.0209,0.2611
7720.0,4.0652,-7.072,-8.4568,0.6679,-1.0209,0.2611
7726.0,8.5527,-5.0318,-5.2769,0.6679,-1.0209,0.2611
7730.0,8.5527,-5.0318,-5.2769,0.6679,-1.0209,0.2611
7735.0,8.5527,-5.0318,-5.2769,0.6679,-1.0209,0.2611
7740.0,8.5527,-5.0318,-5.2769,0.6679,-1.0209,0.2611
7751.0,8.6389,-22.1208,3.4145,0.0686,2.8587,0.0839
7752.0,8.6389,-22.1208,3.4145,0.0686,2.8587,0.0839
7755.0,8.6389,-22.1208,3.4145,0.0686,2.8587,0.0839
7760.0,8.6389,-22.1208,3.4145,0.0686,2.8587,0.0839
7765.0,8.6389,-22.1208,3.4145,0.0686,2.8587,0.0839
7770.0,8.6389,-22.1208,3.4145,0.0686,2.8587,0.0839
7775.0,8.6389,-22.1208,3.4145,0.0686,2.8587,0.0839
7780.0,13.2988,-38.0849,2.7273,0.9923,0.7726,0.3619
7785.0,13.2988,-38.0849,2.7273,0.9923,0.7726,0.3619
7790.0,13.2988,-38.0849,2.7273,0.9923,0.7726,0.3619
7795.0,13.2988,-38.0849,2.7273,0.9923,0.7726,0.3619
7799.0,13.2988,-38.0849,2.7273,0.9923,0.7726,0.3619
7804.0,13.2988,-38.0849,2.7273,0.9923,0.7726,0.3619
7810.0,-1.1072,-6.3713,1.9312,0.9923,0.7726,0.3619
7814.0,-1.1072,-6.3713,1.9312,-1.1861,0.0347,0.8353
7821.0,-1.1072,-6.3713,1.9312,-1.1861,0.0347,0.8353
7825.0,-1.1072,-6.3713,1.9312,-1.1861,0.0347,0.8353
7830.0,-1.1072,-6.3713,1.9312,-1.1861,0.0347,0.8353
7835.0,-2.4721,-4.0975,4.4476,-1.1861,0.0347,0.8353
7840.0,-2.4721,-4.0975,4.4476,-1.1861,0.0347,0.8353
7845.0,-2.4721,-4.0975,4.4476,-1.5569,0.0824,0.8836
7849.0,-2.4721,-4.0975,4.4476,-1.5569,0.0824,0.8836
7855.0,-2.4721,-4.0975,4.4476,-1.5569,0.0824,0.8836
7859.0,-2.4721,-4.0975,4.4476,-1.5569,0.0824,0.8836
7864.0,-4.3782,-5.7135,7.2579,-1.5569,0.0824,0.8836
7869.0,-4.3782,-5.7135,7.2579,-1.5569,0.0824,0.8836
7875.0,-4.3782,-5.7135,7.2579,-0.8807,2.2357,1.8451
7880.0,-4.3782,-5.7135,7.2579,-0.8807,2.2357,1.8451
7885.0,-4.3782,-5.7135,7.2579,-0.8807,2.2357,1.8451
7890.0,-3.5305,-7.8681,3.3908,-0.8807,2.2357,1.8451
7895.0,-3.5305,-7.8681,3.3908,-0.8807,2.2357,1.8451
7900.0,-3.5305,-7.8681,3.3908,-0.8807,2.2357,1.8451
7905.0,-3.5305,-7.8681,3.3908,0.9214,2.0249,2.0772
7910.0,-3.5305,-7.8681,3.3908,0.9214,2.0249,2.0772
7915.0,-4.1627,-9.894,0.9881,0.9214,2.0249,2.0772
7919.0,-4.1627,-9.894,0.9881,0.9214,2.0249,2.0772
7926.0,-4.1627,-9.894,0.9881,0.9214,2.0249,2.0772
7930.0,-4.1627,-9.894,0.9881,0.9214,2.0249,2.0772
7935.0,-4.1627,-9.894,0.9881,0.9214,2.0249,2.0772
7939.0,-4.1627,-9.894,0.9881,2.4608,-0.9421,2.269
7944.0,-1.0018,-7.2341,-0.2725,2.4608,-0.9421,2.269
7949.0,-1.0018,-7.2341,-0.2725,2.4608,-0.9421,2.269
7955.0,-1.0018,-7.2341,-0.2725,2.4608,-0.9421,2.269
7960.0,-1.0018,-7.2341,-0.2725,2.4608,-0.9421,2.269
7965.0,-1.0018,-7.2341,-0.2725,2.4608,-0.9421,2.269
7970.0,0.1524,-7.5916,-0.282,1.7656,-4.4576,2.0033
7975.0,0.1524,-7.5916,-0.282,1.7656,-4.4576,2.0033
7980.0,0.1524,-7.5916,-0.282,1.7656,-4.4576,2.0033
7985.0,0.1524,-7.5916,-0.282,1.7656,-4.4576,2.0033
7991.0,0.1524,-7.5916,-0.282,1.7656,-4.4576,2.0033
7996.0,0.1524,-7.5916,-0.282,1.4975,-6.796,1.6716
8000.0,2.3267,-10.0275,1.1587,1.4975,-6.796,1.6716
8017.0,2.3267,-10.0275,1.1587,1.4975,-6.796,1.6716
8018.0,2.3267,-10.0275,1.1587,1.4975,-6.796,1.6716
8019.0,2.3267,-10.0275,1.1587,1.4975,-6.796,1.6716
8019.0,2.3267,-10.0275,1.1587,1.4975,-6.796,1.6716
8025.0,3.3133,-13.3595,1.808,1.4975,-6.796,1.6716
8030.0,3.3133,-13.3595,1.808,1.2971,-6.6732,2.2165
8035.0,3.3133,-13.3595,1.808,1.2971,-6.6732,2.2165
8039.0,3.3133,-13.3595,1.808,1.2971,-6.6732,2.2165
8045.0,3.3133,-13.3595,1.808,1.2971,-6.6732,2.2165
8050.0,-2.1752,-10.7806,7.1868,1.2971,-6.6732,2.2165
8054.0,-2.1752,-10.7806,7.1868,1.2971,-6.6732,2.2165
8059.0,-2.1752,-10.7806,7.1868,-0.5092,3.6266,6.0393
8065.0,-2.1752,-10.7806,7.1868,-0.5092,3.6266,6.0393
8070.0,-2.1752,-10.7806,7.1868,-0.5092,3.6266,6.0393
8075.0,0.5355,-10.7091,-9.9402,-0.5092,3.6266,6.0393
8079.0,0.5355,-10.7091,-9.9402,-0.5092,3.6266,6.0393
8085.0,0.5355,-10.7091,-9.9402,-0.8929,5.9168,-0.1182
8090.0,0.5355,-10.7091,-9.9402,-0.8929,5.9168,-0.1182
8095.0,0.5355,-10.7091,-9.9402,-0.8929,5.9168,-0.1182
8100.0,0.5355,-10.7091,-9.9402,-0.8929,5.9168,-0.1182
8105.0,-1.6292,-10.7854,-3.6514,-0.8929,5.9168,-0.1182
8110.0,-1.6292,-10.7854,-3.6514,-0.8929,5.9168,-0.1182
8115.0,-1.6292,-10.7854,-3.6514,-0.8929,5.9168,-0.1182
8120.0,-1.6292,-10.7854,-3.6514,-0.5154,-0.432,0.9276
8125.0,-1.6292,-10.7854,-3.6514,-0.5154,-0.432,0.9276
8129.0,-2.3236,-7.9015,-2.334,-0.5154,-0.432,0.9276
8134.0,-2.3236,-7.9015,-2.334,-0.5154,-0.432,0.9276
8140.0,-2.3236,-7.9015,-2.334,-0.5154,-0.432,0.9276
8145.0,-2.3236,-7.9015,-2.334,-0.5154,-0.432,0.9276
8150.0,-2.3236,-7.9015,-2.334,0.1823,-3.6109,1.2293
8155.0,-2.0985,-7.6679,-0.5616,0.1823,-3.6109,1.2293
8160.0,-2.0985,-7.6679,-0.5616,0.1823,-3.6109,1.2293
8164.0,-2.0985,-7.6679,-0.5616,0.1823,-3.6109,1.2293
8170.0,-2.0985,-7.6679,-0.5616,0.1823,-3.6109,1.2293
8174.0,-2.0985,-7.6679,-0.5616,0.1823,-3.6109,1.2293
8180.0,-2.0985,-7.6679,-0.5616,0.1823,-3.6109,1.2293
8185.0,-1.974,-10.2563,0.8981,0.4614,-3.5798,0.7003
8190.0,-1.974,-10.2563,0.8981,0.4614,-3.5798,0.7003
8195.0,-1.974,-10.2563,0.8981,0.4614,-3.5798,0.7003
8200.0,-1.974,-10.2563,0.8981,0.4614,-3.5798,0.7003
8205.0,-1.974,-10.2563,0.8981,0.4614,-3.5798,0.7003
8210.0,-1.3418,-11.2954,1.462,0.4614,-3.5798,0.7003
8215.0,-1.3418,-11.2954,1.462,0.123,-0.6647,0.7999
8220.0,-1.3418,-11.2954,1.462,0.123,-0.6647,0.7999
8225.0,-1.3418,-11.2954,1.462,0.123,-0.6647,0.7999
8230.0,-1.3418,-11.2954,1.462,0.123,-0.6647,0.7999
8235.0,-1.3418,-11.2954,1.462,0.123,-0.6647,0.7999
8239.0,-1.203,-10.3897,0.5995,0.123,-0.6647,0.7999
8245.0,-1.203,-10.3897,0.5995,-0.6369,1.8722,-0.3797
8250.0,-1.203,-10.3897,0.5995,-0.6369,1.8722,-0.3797
8255.0,-1.203,-10.3897,0.5995,-0.6369,1.8722,-0.3797
8260.0,-1.203,-10.3897,0.5995,-0.6369,1.8722,-0.3797
8265.0,-1.1694,-12.5968,-4.0827,-0.6369,1.8722,-0.3797
8270.0,-1.1694,-12.5968,-4.0827,-0.6369,1.8722,-0.3797
8276.0,-1.1694,-12.5968,-4.0827,-0.7621,1.9657,-1.894
8280.0,-1.1694,-12.5968,-4.0827,-0.7621,1.9657,-1.894
8285.0,-1.1694,-12.5968,-4.0827,-0.7621,1.9657,-1.894
8290.0,-1.1694,-12.5968,-4.0827,-0.7621,1.9657,-1.894
8295.0,-2.0075,-17.826,-3.9595,-0.7621,1.9657,-1.894
8300.0,-2.0075,-17.826,-3.9595,-0.7621,1.9657,-1.894
8305.0,-2.0075,-17.826,-3.9595,-0.7621,1.9657,-1.894
8311.0,-2.0075,-17.826,-3.9595,-0.205,1.0353,-3.2606
8315.0,-2.0075,-17.826,-3.9595,-0.205,1.0353,-3.2606
8320.0,-2.3045,-14.5845,-0.7606,-0.205,1.0353,-3.2606
8329.0,-2.3045,-14.5845,-0.7606,-0.205,1.0353,-3.2606
8332.0,-2.3045,-14.5845,-0.7606,-0.205,1.0353,-3.2606
8335.0,-2.3045,-14.5845,-0.7606,-0.205,1.0353,-3.2606
8340.0,-2.3045,-14.5845,-0.7606,0.3973,-0.3226,-3.902
8345.0,-2.3045,-14.5845,-0.7606,0.3973,-0.3226,-3.902
8350.0,-1.7298,-13.2546,1.154,0.3973,-0.3226,-3.902
8354.0,-1.7298,-13.2546,1.154,0.3973,-0.3226,-3.902
8360.0,-1.7298,-13.2546,1.154,0.3973,-0.3226,-3.902
8366.0,-1.7298,-13.2546,1.154,0.3973,-0.3226,-3.902
8370.0,-1.7298,-13.2546,1.154,0.3973,-0.3226,-3.902
8375.0,0.6457,-15.6904,2.4335,1.8328,-1.0001,-4.0412
8381.0,0.6457,-15.6904,2.4335,1.8328,-1.0001,-4.0412
8385.0,0.6457,-15.6904,2.4335,1.8328,-1.0001,-4.0412
8389.0,0.6457,-15.6904,2.4335,1.8328,-1.0001,-4.0412
8395.0,0.6457,-15.6904,2.4335,1.8328,-1.0001,-4.0412
8401.0,8.5192,-20.9292,3.9263,1.7754,-0.3813,-3.9197
8405.0,8.5192,-20.9292,3.9263,1.7754,-0.3813,-3.9197
8411.0,8.5192,-20.9292,3.9263,1.7754,-0.3813,-3.9197
8415.0,8.5192,-20.9292,3.9263,1.7754,-0.3813,-3.9197
8420.0,8.5192,-20.9292,3.9263,1.7754,-0.3813,-3.9197
8424.0,8.5192,-20.9292,3.9263,1.7754,-0.3813,-3.9197
8430.0,9.2136,-14.8944,3.7794,1.7754,-0.3813,-3.9197
8435.0,9.2136,-14.8944,3.7794,-1.4005,3.6706,-3.7309
8439.0,9.2136,-14.8944,3.7794,-1.4005,3.6706,-3.7309
8445.0,9.2136,-14.8944,3.7794,-1.4005,3.6706,-3.7309
8449.0,9.2136,-14.8944,3.7794,-1.4005,3.6706,-3.7309
8455.0,4.7117,-7.1245,0.7085,-1.4005,3.6706,-3.7309
8460.0,4.7117,-7.1245,0.7085,-1.4005,3.6706,-3.7309
8465.0,4.7117,-7.1245,0.7085,-2.0761,4.3725,-3.4646
8470.0,4.7117,-7.1245,0.7085,-2.0761,4.3725,-3.4646
8475.0,4.7117,-7.1245,0.7085,-2.0761,4.3725,-3.4646
8480.0,4.7117,-7.1245,0.7085,-2.0761,4.3725,-3.4646
8485.0,0.3583,-5.928,-4.2201,-2.0761,4.3725,-3.4646
8490.0,0.3583,-5.928,-4.2201,-2.0761,4.3725,-3.4646
8495.0,0.3583,-5.928,-4.2201,-2.0761,4.3725,-3.4646
8500.0,0.3583,-5.928,-4.2201,-1.9369,3.8435,-4.0272
8505.0,0.3583,-5.928,-4.2201,-1.9369,3.8435,-4.0272
8510.0,-1.9501,-8.545,-5.8978,-1.9369,3.8435,-4.0272
8515.0,-1.9501,-8.545,-5.8978,-1.9369,3.8435,-4.0272
8520.0,-1.9501,-8.545,-5.8978,-1.9369,3.8435,-4.0272
8526.0,-1.9501,-8.545,-5.8978,-1.9369,3.8435,-4.0272
8530.0,-1.9501,-8.545,-5.8978,-1.5654,-0.8963,-2.5116
8535.0,-1.9501,-8.545,-5.8978,-1.5654,-0.8963,-2.5116
8540.0,-3.8227,-9.117,-1.0829,-1.5654,-0.8963,-2.5116
8545.0,-3.8227,-9.117,-1.0829,-1.5654,-0.8963,-2.5116
8550.0,-3.8227,-9.117,-1.0829,-1.5654,-0.8963,-2.5116
8555.0,-3.8227,-9.117,-1.0829,-1.5654,-0.8963,-2.5116
8560.0,-3.8227,-9.117,-1.0829,-0.3571,-2.3935,-1.2832
8564.0,-3.473,-8.0635,2.9643,-0.3571,-2.3935,-1.2832
8570.0,-3.473,-8.0635,2.9643,-0.3571,-2.3935,-1.2832
8575.0,-3.473,-8.0635,2.9643,-0.3571,-2.3935,-1.2832
8580.0,-3.473,-8.0635,2.9643,-0.3571,-2.3935,-1.2832
8584.0,-3.473,-8.0635,2.9643,-0.3571,-2.3935,-1.2832
8590.0,-3.473,-8.0635,2.9643,0.5054,-1.0E-4,-1.2392
8595.0,0.0614,-3.8878,4.296,0.5054,-1.0E-4,-1.2392
8600.0,0.0614,-3.8878,4.296,0.5054,-1.0E-4,-1.2392
8605.0,0.0614,-3.8878,4.296,0.5054,-1.0E-4,-1.2392
8610.0,0.0614,-3.8878,4.296,0.5054,-1.0E-4,-1.2392
8615.0,0.0614,-3.8878,4.296,0.5054,-1.0E-4,-1.2392
8620.0,1.479,-0.9801,3.0922,0.5054,-1.0E-4,-1.2392
8625.0,1.479,-0.9801,3.0922,0.4406,1.3084,-0.4164
8630.0,1.479,-0.9801,3.0922,0.4406,1.3084,-0.4164
8635.0,1.479,-0.9801,3.0922,0.4406,1.3084,-0.4164
8640.0,1.479,-0.9801,3.0922,0.4406,1.3084,-0.4164
8644.0,1.479,-0.9801,3.0922,0.4406,1.3084,-0.4164
8650.0,1.2874,-0.6798,0.2583,0.4406,1.3084,-0.4164
8656.0,1.2874,-0.6798,0.2583,0.8658,1.0732,0.8103
8661.0,1.2874,-0.6798,0.2583,0.8658,1.0732,0.8103
8665.0,1.2874,-0.6798,0.2583,0.8658,1.0732,0.8103
8670.0,1.2874,-0.6798,0.2583,0.8658,1.0732,0.8103
8675.0,1.7376,-2.6103,1.0023,0.8658,1.0732,0.8103
8680.0,1.7376,-2.6103,1.0023,0.8658,1.0732,0.8103
8685.0,1.7376,-2.6103,1.0023,1.3838,1.7769,2.4914
8690.0,1.7376,-2.6103,1.0023,1.3838,1.7769,2.4914
8695.0,1.7376,-2.6103,1.0023,1.3838,1.7769,2.4914
8700.0,2.7913,-8.3114,-2.879,1.3838,1.7769,2.4914
8705.0,2.7913,-8.3114,-2.879,1.3838,1.7769,2.4914
8710.0,2.7913,-8.3114,-2.879,1.3838,1.7769,2.4914
8715.0,2.7913,-8.3114,-2.879,1.7308,1.9205,4.0479
8720.0,2.7913,-8.3114,-2.879,1.7308,1.9205,4.0479
8725.0,2.7913,-8.3114,-2.879,1.7308,1.9205,4.0479
8730.0,6.3305,-22.4736,-36.1756,1.7308,1.9205,4.0479
8735.0,6.3305,-22.4736,-36.1756,1.7308,1.9205,4.0479
8740.0,6.3305,-22.4736,-36.1756,1.7308,1.9205,4.0479
8745.0,6.3305,-22.4736,-36.1756,2.0301,-3.702,1.1866
8750.0,6.3305,-22.4736,-36.1756,2.0301,-3.702,1.1866
8755.0,10.1284,-15.5569,-13.8736,2.0301,-3.702,1.1866
8760.0,10.1284,-15.5569,-13.8736,2.0301,-3.702,1.1866
8765.0,10.1284,-15.5569,-13.8736,2.0301,-3.702,1.1866
8770.0,10.1284,-15.5569,-13.8736,2.0301,-3.702,1.1866
8775.0,10.1284,-15.5569,-13.8736,2.0301,-3.702,1.1866
8780.0,10.1284,-15.5569,-13.8736,-0.125,3.5619,-1.3259
8784.0,5.502,-7.7251,-7.5754,-0.125,3.5619,-1.3259
8790.0,5.502,-7.7251,-7.5754,-0.125,3.5619,-1.3259
8795.0,5.502,-7.7251,-7.5754,-0.125,3.5619,-1.3259
8800.0,5.502,-7.7251,-7.5754,-0.125,3.5619,-1.3259
8805.0,5.502,-7.7251,-7.5754,-0.125,3.5619,-1.3259
8809.0,7.8104,-10.5137,-0.1777,-0.0542,-1.1742,0.3845
8815.0,7.8104,-10.5137,-0.1777,-0.0542,-1.1742,0.3845
8819.0,7.8104,-10.5137,-0.1777,-0.0542,-1.1742,0.3845
8825.0,7.8104,-10.5137,-0.1777,-0.0542,-1.1742,0.3845
8829.0,7.8104,-10.5137,-0.1777,-0.0542,-1.1742,0.3845
8835.0,7.8104,-10.5137,-0.1777,-0.0542,-1.1742,0.3845
8839.0,5.5115,-11.3479,6.0826,-0.4763,-7.0893,1.9984
8845.0,5.5115,-11.3479,6.0826,-0.4763,-7.0893,1.9984
8849.0,5.5115,-11.3479,6.0826,-0.4763,-7.0893,1.9984
8855.0,5.5115,-11.3479,6.0826,-0.4763,-7.0893,1.9984
8860.0,5.5115,-11.3479,6.0826,-0.4763,-7.0893,1.9984
8865.0,4.4435,-6.91,5.0589,-0.4763,-7.0893,1.9984
8870.0,4.4435,-6.91,5.0589,-0.4598,-4.8413,1.4663
8875.0,4.4435,-6.91,5.0589,-0.4598,-4.8413,1.4663
8880.0,4.4435,-6.91,5.0589,-0.4598,-4.8413,1.4663
8884.0,4.4435,-6.91,5.0589,-0.4598,-4.8413,1.4663
8890.0,1.8957,-7.0291,3.7841,-0.4598,-4.8413,1.4663
8895.0,1.8957,-7.0291,3.7841,-0.4598,-4.8413,1.4663
8899.0,1.8957,-7.0291,3.7841,-0.4598,-4.8413,1.4663
8904.0,1.8957,-7.0291,3.7841,-0.979,-0.6134,1.5849
8910.0,1.8957,-7.0291,3.7841,-0.979,-0.6134,1.5849
8915.0,1.8957,-7.0291,3.7841,-0.979,-0.6134,1.5849
8920.0,1.7951,-9.7605,4.5187,-0.979,-0.6134,1.5849
8925.0,1.7951,-9.7605,4.5187,-0.979,-0.6134,1.5849
8930.0,1.7951,-9.7605,4.5187,-0.979,-0.6134,1.5849
8936.0,1.7951,-9.7605,4.5187,-0.9619,-0.1614,2.1175
8940.0,1.7951,-9.7605,4.5187,-0.9619,-0.1614,2.1175
8945.0,0.047,-12.2536,4.6372,-0.9619,-0.1614,2.1175
8950.0,0.047,-12.2536,4.6372,-0.9619,-0.1614,2.1175
8955.0,0.047,-12.2536,4.6372,-0.9619,-0.1614,2.1175
8960.0,0.047,-12.2536,4.6372,-0.9619,-0.1614,2.1175
8965.0,0.047,-12.2536,4.6372,-0.3229,0.6273,2.3264
8970.0,0.047,-12.2536,4.6372,-0.3229,0.6273,2.3264
8974.0,-0.4989,-11.8484,2.0307,-0.3229,0.6273,2.3264
8980.0,-0.4989,-11.8484,2.0307,-0.3229,0.6273,2.3264
8985.0,-0.4989,-11.8484,2.0307,-0.3229,0.6273,2.3264
8990.0,-0.4989,-11.8484,2.0307,-0.3229,0.6273,2.3264
8995.0,-0.4989,-11.8484,2.0307,-0.3107,0.5888,1.726
9001.0,-1.4807,-9.6986,1.244,-0.3107,0.5888,1.726
9007.0,-1.4807,-9.6986,1.244,-0.3107,0.5888,1.726
9010.0,-1.4807,-9.6986,1.244,-0.3107,0.5888,1.726
9014.0,-1.4807,-9.6986,1.244,-0.3107,0.5888,1.726
9020.0,-1.4807,-9.6986,1.244,-0.3107,0.5888,1.726
9025.0,-1.4807,-9.6986,1.244,-0.2075,0.7329,1.4517
9031.0,-2.0267,-8.831,0.4194,-0.2075,0.7329,1.4517
9035.0,-2.0267,-8.831,0.4194,-0.2075,0.7329,1.4517
9040.0,-2.0267,-8.831,0.4194,-0.2075,0.7329,1.4517
9045.0,-2.0267,-8.831,0.4194,-0.2075,0.7329,1.4517
9050.0,-2.0267,-8.831,0.4194,-0.2075,0.7329,1.4517
9055.0,-2.3763,-7.0291,-10.6605,-0.2075,0.7329,1.4517
9059.0,-2.3763,-7.0291,-10.6605,-0.293,-2.7203,3.4828
9065.0,-2.3763,-7.0291,-10.6605,-0.293,-2.7203,3.4828
9070.0,-2.3763,-7.0291,-10.6605,-0.293,-2.7203,3.4828
9075.0,-2.3763,-7.0291,-10.6605,-0.293,-2.7203,3.4828
9080.0,-2.2231,-9.77,0.8317,-0.293,-2.7203,3.4828
9085.0,-2.2231,-9.77,0.8317,-0.293,-2.7203,3.4828
9090.0,-2.2231,-9.77,0.8317,0.4126,-3.8974,3.7253
9095.0,-2.2231,-9.77,0.8317,0.4126,-3.8974,3.7253
9100.0,-2.2231,-9.77,0.8317,0.4126,-3.8974,3.7253
9105.0,-2.2231,-9.77,0.8317,0.4126,-3.8974,3.7253
9110.0,-2.065,-8.9359,2.0544,0.4126,-3.8974,3.7253
9114.0,-2.065,-8.9359,2.0544,0.4126,-3.8974,3.7253
9120.0,-2.065,-8.9359,2.0544,0.6435,-1.3715,2.0943
9125.0,-2.065,-8.9359,2.0544,0.6435,-1.3715,2.0943
9130.0,-2.065,-8.9359,2.0544,0.6435,-1.3715,2.0943
9135.0,-2.065,-8.9359,2.0544,0.6435,-1.3715,2.0943
9140.0,-1.27,-8.7118,-2.1539,0.6435,-1.3715,2.0943
9145.0,-1.27,-8.7118,-2.1539,0.6435,-1.3715,2.0943
9150.0,-1.27,-8.7118,-2.1539,0.6435,-1.3715,2.0943
9155.0,-1.27,-8.7118,-2.1539,0.3252,-1.4943,1.7718
9160.0,-1.27,-8.7118,-2.1539,0.3252,-1.4943,1.7718
9165.0,0.0183,-10.5709,-2.8553,0.3252,-1.4943,1.7718
9170.0,0.0183,-10.5709,-2.8553,0.3252,-1.4943,1.7718
9174.0,0.0183,-10.5709,-2.8553,0.3252,-1.4943,1.7718
9180.0,0.0183,-10.5709,-2.8553,0.3252,-1.4943,1.7718
9185.0,0.0183,-10.5709,-2.8553,0.2024,-0.7661,1.5042
9189.0,0.0183,-10.5709,-2.8553,0.2024,-0.7661,1.5042
9195.0,-0.7911,-10.9046,0.4905,0.2024,-0.7661,1.5042
9200.0,-0.7911,-10.9046,0.4905,0.2024,-0.7661,1.5042
9205.0,-0.7911,-10.9046,0.4905,0.2024,-0.7661,1.5042
9209.0,-0.7911,-10.9046,0.4905,0.2024,-0.7661,1.5042
9214.0,-0.7911,-10.9046,0.4905,0.4193,1.1593,0.875
9220.0,-9.0E-4,-10.1514,-0.0782,0.4193,1.1593,0.875
9225.0,-9.0E-4,-10.1514,-0.0782,0.4193,1.1593,0.875
9230.0,-9.0E-4,-10.1514,-0.0782,0.4193,1.1593,0.875
9234.0,-9.0E-4,-10.1514,-0.0782,0.4193,1.1593,0.875
9240.0,-9.0E-4,-10.1514,-0.0782,0.4193,1.1593,0.875
9245.0,0.6505,-9.9893,-0.6611,0.47,0.9559,1.189
9250.0,0.6505,-9.9893,-0.6611,0.47,0.9559,1.189
9255.0,0.6505,-9.9893,-0.6611,0.47,0.9559,1.189
9259.0,0.6505,-9.9893,-0.6611,0.47,0.9559,1.189
9265.0,0.6505,-9.9893,-0.6611,0.47,0.9559,1.189
9271.0,0.6505,-9.9893,-0.6611,0.47,0.9559,1.189
9276.0,1.1342,-10.7806,-1.9928,-0.0157,-0.2903,1.0247
9280.0,1.1342,-10.7806,-1.9928,-0.0157,-0.2903,1.0247
9285.0,1.1342,-10.7806,-1.9928,-0.0157,-0.2903,1.0247
9290.0,1.1342,-10.7806,-1.9928,-0.0157,-0.2903,1.0247
9295.0,1.1342,-10.7806,-1.9928,-0.0157,-0.2903,1.0247
9300.0,1.1342,-10.7806,-1.9928,-0.0157,-0.2903,1.0247
9304.0,-0.7192,-11.7101,-0.1066,-0.0157,-0.2903,1.0247
9310.0,-0.7192,-11.7101,-0.1066,-0.5624,-0.4528,0.1853
9316.0,-0.7192,-11.7101,-0.1066,-0.5624,-0.4528,0.1853
9319.0,-0.7192,-11.7101,-0.1066,-0.5624,-0.4528,0.1853
9325.0,-0.7192,-11.7101,-0.1066,-0.5624,-0.4528,0.1853
9330.0,-0.7192,-11.7101,-0.1066,-0.5624,-0.4528,0.1853
9335.0,-2.9079,-10.7663,1.3103,-0.5624,0.1868,-0.1286
9340.0,-2.9079,-10.7663,1.3103,-0.5624,0.1868,-0.1286
9345.0,-2.9079,-10.7663,1.3103,-0.5624,0.1868,-0.1286
9350.0,-2.9079,-10.7663,1.3103,-0.5624,0.1868,-0.1286
9355.0,-2.9079,-10.7663,1.3103,-0.5624,0.1868,-0.1286
9360.0,-2.9079,-10.7663,1.3103,-0.5624,0.1868,-0.1286
9365.0,-3.6407,-10.9904,1.9406,-0.5624,0.1868,-0.1286
9370.0,-3.6407,-10.9904,1.9406,-0.2802,0.6621,-0.5489
9376.0,-3.6407,-10.9904,1.9406,-0.2802,0.6621,-0.5489
9380.0,-3.6407,-10.9904,1.9406,-0.2802,0.6621,-0.5489
9384.0,-3.6407,-10.9904,1.9406,-0.2802,0.6621,-0.5489
9390.0,-3.0276,-15.0946,2.5757,-0.2802,0.6621,-0.5489
9395.0,-3.0276,-15.0946,2.5757,-0.2802,0.6621,-0.5489
9399.0,-3.0276,-15.0946,2.5757,0.47,1.7457,-1.4579
9405.0,-3.0276,-15.0946,2.5757,0.47,1.7457,-1.4579
9410.0,-3.0276,-15.0946,2.5757,0.47,1.7457,-1.4579
9415.0,1.412,-12.2679,-4.1017,0.47,1.7457,-1.4579
9420.0,1.412,-12.2679,-4.1017,0.47,1.7457,-1.4579
9424.0,1.412,-12.2679,-4.1017,0.47,1.7457,-1.4579
9430.0,1.412,-12.2679,-4.1017,0.2201,3.1153,-4.153
9434.0,1.412,-12.2679,-4.1017,0.2201,3.1153,-4.153
9440.0,0.502,-10.7758,-0.3578,0.2201,3.1153,-4.153
9445.0,0.502,-10.7758,-0.3578,0.2201,3.1153,-4.153
9449.0,0.502,-10.7758,-0.3578,0.2201,3.1153,-4.153
9454.0,0.502,-10.7758,-0.3578,0.2201,3.1153,-4.153
9460.0,0.502,-10.7758,-0.3578,0.5274,0.5087,-3.5092
9465.0,0.502,-10.7758,-0.3578,0.5274,0.5087,-3.5092
9469.0,1.8143,-11.8198,0.7938,0.5274,0.5087,-3.5092
9475.0,1.8143,-11.8198,0.7938,0.5274,0.5087,-3.5092
9479.0,1.8143,-11.8198,0.7938,0.5274,0.5087,-3.5092
9485.0,1.8143,-11.8198,0.7938,0.5274,0.5087,-3.5092
9490.0,1.8143,-11.8198,0.7938,1.6715,-0.6061,-3.3137
9494.0,1.8143,-11.8198,0.7938,1.6715,-0.6061,-3.3137
9500.0,5.8803,-18.5839,2.9927,1.6715,-0.6061,-3.3137
9505.0,5.8803,-18.5839,2.9927,1.6715,-0.6061,-3.3137
9510.0,5.8803,-18.5839,2.9927,1.6715,-0.6061,-3.3137
9515.0,5.8803,-18.5839,2.9927,1.6715,-0.6061,-3.3137
9520.0,5.8803,-18.5839,2.9927,1.1847,-0.611,-3.3455
9525.0,9.4339,-17.3874,2.8411,1.1847,-0.611,-3.3455
9530.0,9.4339,-17.3874,2.8411,1.1847,-0.611,-3.3455
9534.0,9.4339,-17.3874,2.8411,1.1847,-0.611,-3.3455
9540.0,9.4339,-17.3874,2.8411,1.1847,-0.611,-3.3455
9545.0,9.4339,-17.3874,2.8411,1.1847,-0.611,-3.3455
9550.0,9.4339,-17.3874,2.8411,1.1847,-0.611,-3.3455
9555.0,5.8085,-9.8463,2.0923,-1.3034,2.6517,-3.9362
9560.0,5.8085,-9.8463,2.0923,-1.3034,2.6517,-3.9362
9564.0,5.8085,-9.8463,2.0923,-1.3034,2.6517,-3.9362
9570.0,5.8085,-9.8463,2.0923,-1.3034,2.6517,-3.9362
9575.0,5.8085,-9.8463,2.0923,-1.3034,2.6517,-3.9362
9579.0,3.1409,-6.3761,0.699,-1.3034,2.6517,-3.9362
9585.0,3.1409,-6.3761,0.699,-2.0633,3.2308,-3.329
9590.0,3.1409,-6.3761,0.699,-2.0633,3.2308,-3.329
9595.0,3.1409,-6.3761,0.699,-2.0633,3.2308,-3.329
9600.0,3.1409,-6.3761,0.699,-2.0633,3.2308,-3.329
9605.0,0.0806,-6.4476,-4.1159,-2.0633,3.2308,-3.329
9610.0,0.0806,-6.4476,-4.1159,-2.0633,3.2308,-3.329
9615.0,0.0806,-6.4476,-4.1159,-1.9741,3.2595,-3.0767
9620.0,0.0806,-6.4476,-4.1159,-1.9741,3.2595,-3.0767
9624.0,0.0806,-6.4476,-4.1159,-1.9741,3.2595,-3.0767
9630.0,0.0806,-6.4476,-4.1159,-1.9741,3.2595,-3.0767
9635.0,-2.1512,-8.34,-6.2058,-1.9741,3.2595,-3.0767
9639.0,-2.1512,-8.34,-6.2058,-1.9741,3.2595,-3.0767
9645.0,-2.1512,-8.34,-6.2058,-1.5361,-0.206,-2.0706
9650.0,-2.1512,-8.34,-6.2058,-1.5361,-0.206,-2.0706
9655.0,-2.1512,-8.34,-6.2058,-1.5361,-0.206,-2.0706
9660.0,-3.5209,-8.1493,-0.718,-1.5361,-0.206,-2.0706
9665.0,-3.5209,-8.1493,-0.718,-1.5361,-0.206,-2.0706
9670.0,-3.5209,-8.1493,-0.718,-1.5361,-0.206,-2.0706
9675.0,-3.5209,-8.1493,-0.718,-1.5361,-0.206,-2.0706
9680.0,-3.5209,-8.1493,-0.718,-0.5465,-2.4277,-1.1036
9684.0,-2.9558,-7.3056,2.2487,-0.5465,-2.4277,-1.1036
9690.0,-2.9558,-7.3056,2.2487,-0.5465,-2.4277,-1.1036
9695.0,-2.9558,-7.3056,2.2487,-0.5465,-2.4277,-1.1036
9699.0,-2.9558,-7.3056,2.2487,-0.5465,-2.4277,-1.1036
9705.0,-2.9558,-7.3056,2.2487,-0.5465,-2.4277,-1.1036
9709.0,-2.9558,-7.3056,2.2487,0.2146,-0.8462,-0.6143
9715.0,-0.93,-6.4905,3.8552,0.2146,-0.8462,-0.6143
9720.0,-0.93,-6.4905,3.8552,0.2146,-0.8462,-0.6143
9725.0,-0.93,-6.4905,3.8552,0.2146,-0.8462,-0.6143
9730.0,-0.93,-6.4905,3.8552,0.2146,-0.8462,-0.6143
9735.0,-0.93,-6.4905,3.8552,0.2146,-0.8462,-0.6143
9745.0,1.5748,-3.8973,3.2107,0.2262,1.5429,-0.2135
9747.0,1.5748,-3.8973,3.2107,0.2262,1.5429,-0.2135
9750.0,1.5748,-3.8973,3.2107,0.2262,1.5429,-0.2135
9755.0,1.5748,-3.8973,3.2107,0.2262,1.5429,-0.2135
9760.0,1.5748,-3.8973,3.2107,0.2262,1.5429,-0.2135
9765.0,1.9771,-2.8486,0.481,0.2262,1.5429,-0.2135
9770.0,1.9771,-2.8486,0.481,0.1077,0.9846,0.1212
9775.0,1.9771,-2.8486,0.481,0.1077,0.9846,0.1212
9780.0,1.9771,-2.8486,0.481,0.1077,0.9846,0.1212
9784.0,1.9771,-2.8486,0.481,0.1077,0.9846,0.1212
9790.0,0.8708,-5.1987,0.6374,0.1077,0.9846,0.1212
9795.0,0.8708,-5.1987,0.6374,0.1077,0.9846,0.1212
9800.0,0.8708,-5.1987,0.6374,1.5622,0.9944,1.6759
9805.0,0.8708,-5.1987,0.6374,1.5622,0.9944,1.6759
9811.0,0.8708,-5.1987,0.6374,1.5622,0.9944,1.6759
9815.0,1.5748,-9.2028,-0.045,1.5622,0.9944,1.6759
9820.0,1.5748,-9.2028,-0.045,1.5622,0.9944,1.6759
9825.0,1.5748,-9.2028,-0.045,1.5622,0.9944,1.6759
9830.0,1.5748,-9.2028,-0.045,2.5311,1.3163,4.2818
9835.0,1.5748,-9.2028,-0.045,2.5311,1.3163,4.2818
9839.0,1.5748,-9.2028,-0.045,2.5311,1.3163,4.2818
9845.0,2.6476,-15.2852,-7.509,2.5311,1.3163,4.2818
9850.0,2.6476,-15.2852,-7.509,2.5311,1.3163,4.2818
9854.0,2.6476,-15.2852,-7.509,2.5311,1.3163,4.2818
9860.0,2.6476,-15.2852,-7.509,2.2122,-0.9274,1.3888
9865.0,2.6476,-15.2852,-7.509,2.2122,-0.9274,1.3888
9870.0,8.8401,-17.0776,-30.2328,2.2122,-0.9274,1.3888
9875.0,8.8401,-17.0776,-30.2328,2.2122,-0.9274,1.3888
9880.0,8.8401,-17.0776,-30.2328,2.2122,-0.9274,1.3888
9885.0,8.8401,-17.0776,-30.2328,2.2122,-0.9274,1.3888
9889.0,8.8401,-17.0776,-30.2328,-0.0163,1.0426,-1.6399
9895.0,8.6341,-11.7054,-7.2247,-0.0163,1.0426,-1.6399
9899.0,8.6341,-11.7054,-7.2247,-0.0163,1.0426,-1.6399
9905.0,8.6341,-11.7054,-7.2247,-0.0163,1.0426,-1.6399
9910.0,8.6341,-11.7054,-7.2247,-0.0163,1.0426,-1.6399
9915.0,8.6341,-11.7054,-7.2247,-0.0163,1.0426,-1.6399
9920.0,8.6341,-11.7054,-7.2247,-0.6876,6.8386,-2.1213
9925.0,10.3582,-14.7418,-8.0588,-0.6876,6.8386,-2.1213
9930.0,10.3582,-14.7418,-8.0588,-0.6876,6.8386,-2.1213
9936.0,10.3582,-14.7418,-8.0588,-0.6876,6.8386,-2.1213
9940.0,10.3582,-14.7418,-8.0588,-0.6876,6.8386,-2.1213
9944.0,10.3582,-14.7418,-8.0588,-0.6876,6.8386,-2.1213
9950.0,3.6677,-13.6121,-0.9312,-0.6876,6.8386,-2.1213
9955.0,3.6677,-13.6121,-0.9312,-1.1036,-4.7863,2.1389
9960.0,3.6677,-13.6121,-0.9312,-1.1036,-4.7863,2.1389
9964.0,3.6677,-13.6121,-0.9312,-1.1036,-4.7863,2.1389
9970.0,3.6677,-13.6121,-0.9312,-1.1036,-4.7863,2.1389
9974.0,3.6677,-13.6121,-0.9312,-1.1036,-4.7863,2.1389
9980.0,2.2213,-5.499,8.6417,-1.1036,-4.7863,2.1389
9984.0,2.2213,-5.499,8.6417,-0.494,-7.2927,1.321
9990.0,2.2213,-5.499,8.6417,-0.494,-7.2927,1.321
9995.0,2.2213,-5.499,8.6417,-0.494,-7.2927,1.321
9999.0,2.2213,-5.499,8.6417,-0.494,-7.2927,1.321
10005.0,2.2213,-5.499,8.6417,-0.494,-7.2927,1.321
10010.0,0.842,-3.0918,8.3336,-0.494,-7.2927,1.321
10014.0,0.842,-3.0918,8.3336,-0.6174,-2.9366,1.0754
10020.0,0.842,-3.0918,8.3336,-0.6174,-2.9366,1.0754
10025.0,0.842,-3.0918,8.3336,-0.6174,-2.9366,1.0754
10029.0,0.842,-3.0918,8.3336,-0.6174,-2.9366,1.0754
10035.0,0.842,-7.9205,9.1914,-0.6174,-2.9366,1.0754
10040.0,0.047,-7.9205,9.1914,-0.6174,-2.9366,1.0754
10045.0,0.047,-7.9205,9.1914,-1.0205,1.0023,1.8714
10050.0,0.047,-7.9205,9.1914,-1.0205,1.0023,1.8714
10054.0,0.047,-7.9205,9.1914,-1.0205,1.0023,1.8714
10060.0,0.047,-7.9205,9.1914,-1.0205,1.0023,1.8714
10066.0,-0.4175,-14.7704,6.239,-1.0205,1.0023,1.8714
10071.0,-0.4175,-14.7704,6.239,-1.0205,1.0023,1.8714
10075.0,-0.4175,-14.7704,6.239,-1.1855,2.8673,1.4871
10080.0,-0.4175,-14.7704,6.239,-1.1855,2.8673,1.4871
10086.0,-0.4175,-14.7704,6.239,-1.1855,2.8673,1.4871
10090.0,-0.4175,-14.7704,6.239,-1.1855,2.8673,1.4871
10096.0,-1.8351,-13.2069,2.661,-1.1855,2.8673,1.4871
10100.0,-1.8351,-13.2069,2.661,-1.1855,2.8673,1.4871
10105.0,-1.8351,-13.2069,2.661,-0.6326,2.7726,0.9795
10110.0,-1.8351,-13.2069,2.661,-0.6326,2.7726,0.9795
10115.0,-1.8351,-13.2069,2.661,-0.6326,2.7726,0.9795
10119.0,-1.7202,-9.5556,0.7369,-0.6326,2.7726,0.9795
10124.0,-1.7202,-9.5556,0.7369,-0.6326,2.7726,0.9795
10130.0,-1.7202,-9.5556,0.7369,-0.6326,2.7726,0.9795
10135.0,-1.7202,-9.5556,0.7369,0.3032,2.3377,1.1505
10140.0,-1.7202,-9.5556,0.7369,0.3032,2.3377,1.1505
10145.0,-1.4711,-9.546,-1.5663,0.3032,2.3377,1.1505
10150.0,-1.4711,-9.546,-1.5663,0.3032,2.3377,1.1505
10155.0,-1.4711,-9.546,-1.5663,0.3032,2.3377,1.1505
10160.0,-1.4711,-9.546,-1.5663,0.3032,2.3377,1.1505
10165.0,-1.4711,-9.546,-1.5663,1.2751,-3.5206,3.6905
10170.0,-1.4711,-9.546,-1.5663,1.2751,-3.5206,3.6905
10175.0,0.3488,-8.0778,-5.2722,1.2751,-3.5206,3.6905
10180.0,0.3488,-8.0778,-5.2722,1.2751,-3.5206,3.6905
10184.0,0.3488,-8.0778,-5.2722,1.2751,-3.5206,3.6905
10190.0,0.3488,-8.0778,-5.2722,1.2751,-3.5206,3.6905
10195.0,0.3488,-8.0778,-5.2722,1.3411,-5.9475,4.1749
10201.0,-0.5756,-10.0132,1.045,1.3411,-5.9475,4.1749
10205.0,-0.5756,-10.0132,1.045,1.3411,-5.9475,4.1749
10210.0,-0.5756,-10.0132,1.045,1.3411,-5.9475,4.1749
10215.0,-0.5756,-10.0132,1.045,1.3411,-5.9475,4.1749
10220.0,-0.5756,-10.0132,1.045,1.3411,-5.9475,4.1749
10225.0,-0.5756,-10.0132,1.045,1.3026,-3.983,2.3753
10230.0,-0.3074,-8.8119,0.6374,1.3026,-3.983,2.3753
10235.0,-0.3074,-8.8119,0.6374,1.3026,-3.983,2.3753
10240.0,-0.3074,-8.8119,0.6374,1.3026,-3.983,2.3753
10245.0,-0.3074,-8.8119,0.6374,1.3026,-3.983,2.3753
10250.0,-0.3074,-8.8119,0.6374,1.3026,-3.983,2.3753
10255.0,1.7185,-9.0074,-4.187,0.4578,-3.267,1.0882
10259.0,1.7185,-9.0074,-4.187,0.4578,-3.267,1.0882
10264.0,1.7185,-9.0074,-4.187,0.4578,-3.267,1.0882
10269.0,1.7185,-9.0074,-4.187,0.4578,-3.267,1.0882
10275.0,1.7185,-9.0074,-4.187,0.4578,-3.267,1.0882
10280.0,-0.0152,-9.9846,2.206,0.4578,-3.267,1.0882
10285.0,-0.0152,-9.9846,2.206,-0.0773,0.1379,1.7596
10290.0,-0.0152,-9.9846,2.206,-0.0773,0.1379,1.7596
10294.0,-0.0152,-9.9846,2.206,-0.0773,0.1379,1.7596
10300.0,-0.0152,-9.9846,2.206,-0.0773,0.1379,1.7596
10305.0,-0.0152,-9.9846,2.206,-0.0773,0.1379,1.7596
10310.0,-0.451,-9.8749,1.3672,-0.0773,0.1379,1.7596
10314.0,-0.451,-9.8749,1.3672,-0.1103,2.1526,1.0503
10320.0,-0.451,-9.8749,1.3672,-0.1103,2.1526,1.0503
10325.0,-0.451,-9.8749,1.3672,-0.1103,2.1526,1.0503
10330.0,-0.451,-9.8749,1.3672,-0.1103,2.1526,1.0503
10335.0,0.3679,-10.3993,0.2298,-0.1103,2.1526,1.0503
10340.0,0.3679,-10.3993,0.2298,-0.1103,2.1526,1.0503
10345.0,0.3679,-10.3993,0.2298,0.514,2.4031,1.4352
10350.0,0.3679,-10.3993,0.2298,0.514,2.4031,1.4352
10355.0,0.3679,-10.3993,0.2298,0.514,2.4031,1.4352
10360.0,0.3679,-10.3993,0.2298,0.514,2.4031,1.4352
10365.0,1.6514,-11.1524,-2.0496,0.514,2.4031,1.4352
10370.0,1.6514,-11.1524,-2.0496,0.514,2.4031,1.4352
10374.0,1.6514,-11.1524,-2.0496,0.514,2.4031,1.4352
10379.0,1.6514,-11.1524,-2.0496,0.3808,1.0769,1.5775
10384.0,1.6514,-11.1524,-2.0496,0.3808,1.0769,1.5775
10390.0,1.6514,-11.1524,-2.0496,0.3808,1.0769,1.5775
10396.0,1.2491,-11.2954,-6.0352,0.3808,1.0769,1.5775
10400.0,1.2491,-11.2954,-6.0352,0.3808,1.0769,1.5775
10405.0,1.2491,-11.2954,-6.0352,0.3808,1.0769,1.5775
10411.0,1.2491,-11.2954,-6.0352,-0.4109,-1.5847,-0.2917
10415.0,1.2491,-11.2954,-6.0352,-0.4109,-1.5847,-0.2917
10420.0,-1.7968,-10.957,0.3057,-0.4109,-1.5847,-0.2917
10425.0,-1.7968,-10.957,0.3057,-0.4109,-1.5847,-0.2917
10430.0,-1.7968,-10.957,0.3057,-0.4109,-1.5847,-0.2917
10435.0,-1.7968,-10.957,0.3057,-0.4109,-1.5847,-0.2917
10440.0,-1.7968,-10.957,0.3057,-0.3852,-1.8217,-0.3992
10444.0,-2.8792,-9.6127,1.4715,-0.3852,-1.8217,-0.3992
10449.0,-2.8792,-9.6127,1.4715,-0.3852,-1.8217,-0.3992
10455.0,-2.8792,-9.6127,1.4715,-0.3852,-1.8217,-0.3992
10460.0,-2.8792,-9.6127,1.4715,-0.3852,-1.8217,-0.3992
10465.0,-2.8792,-9.6127,1.4715,-0.3852,-1.8217,-0.3992
10470.0,-2.8792,-9.6127,1.4715,-0.2985,-0.8565,-0.5281
10474.0,-3.7125,-10.3039,2.0307,-0.2985,-0.8565,-0.5281
10479.0,-3.7125,-10.3039,2.0307,-0.2985,-0.8565,-0.5281
10485.0,-3.7125,-10.3039,2.0307,-0.2985,-0.8565,-0.5281
10490.0,-3.7125,-10.3039,2.0307,-0.2985,-0.8565,-0.5281
10496.0,-3.7125,-10.3039,2.0307,-0.2985,-0.8565,-0.5281
10500.0,-3.7556,-16.9298,3.405,0.1236,1.3511,-0.6992
10506.0,-3.7556,-16.9298,3.405,0.1236,1.3511,-0.6992
10509.0,-3.7556,-16.9298,3.405,0.1236,1.3511,-0.6992
10515.0,-3.7556,-16.9298,3.405,0.1236,1.3511,-0.6992
10520.0,-3.7556,-16.9298,3.405,0.1236,1.3511,-0.6992
10525.0,0.0422,-13.8171,-4.0021,0.1236,1.3511,-0.6992
10530.0,0.0422,-13.8171,-4.0021,-0.1745,4.4519,-4.2245
10534.0,0.0422,-13.8171,-4.0021,-0.1745,4.4519,-4.2245
10539.0,0.0422,-13.8171,-4.0021,-0.1745,4.4519,-4.2245
10545.0,0.0422,-13.8171,-4.0021,-0.1745,4.4519,-4.2245
10550.0,0.0422,-13.8171,-4.0021,-0.1745,4.4519,-4.2245
10554.0,-1.6388,-13.002,-0.5094,-0.1745,4.4519,-4.2245
10559.0,-1.6388,-13.002,-0.5094,-0.1745,4.4519,-4.2245
10565.0,-1.6388,-13.002,-0.5094,0.5207,1.4159,-3.6326
10570.0,-1.6388,-13.002,-0.5094,0.5207,1.4159,-3.6326
10575.0,-1.6388,-13.002,-0.5094,0.5207,1.4159,-3.6326
10580.0,-0.2307,-12.4538,1.0924,0.5207,1.4159,-3.6326
10585.0,-0.2307,-12.4538,1.0924,0.5207,1.4159,-3.6326
10590.0,-0.2307,-12.4538,1.0924,0.5207,1.4159,-3.6326
10595.0,-0.2307,-12.4538,1.0924,1.517,0.1282,-3.4072
10601.0,-0.2307,-12.4538,1.0924,1.517,0.1282,-3.4072
10605.0,-0.2307,-12.4538,1.0924,1.517,0.1282,-3.4072
10609.0,4.252,-17.559,2.7842,1.517,0.1282,-3.4072
10615.0,4.252,-17.559,2.7842,1.517,0.1282,-3.4072
10620.0,4.252,-17.559,2.7842,1.517,0.1282,-3.4072
10625.0,4.252,-17.559,2.7842,1.3264,-0.713,-3.2465
10630.0,4.252,-17.559,2.7842,1.3264,-0.713,-3.2465
10634.0,9.319,-19.2512,3.2012,1.3264,-0.713,-3.2465
10639.0,9.319,-19.2512,3.2012,1.3264,-0.713,-3.2465
10645.0,9.319,-19.2512,3.2012,1.3264,-0.713,-3.2465
10650.0,9.319,-19.2512,3.2012,1.3264,-0.713,-3.2465
10655.0,9.319,-19.2512,3.2012,-1.1384,1.8783,-3.7193
10659.0,9.319,-19.2512,3.2012,-1.1384,1.8783,-3.7193
10665.0,6.1964,-9.5984,2.9027,-1.1384,1.8783,-3.7193
10669.0,6.1964,-9.5984,2.9027,-1.1384,1.8783,-3.7193
10677.0,6.1964,-9.5984,2.9027,-1.1384,1.8783,-3.7193
10679.0,6.1964,-9.5984,2.9027,-1.1384,1.8783,-3.7193
10685.0,6.1964,-9.5984,2.9027,-1.1384,1.8783,-3.7193
10690.0,2.7817,-5.5848,0.0545,-2.2233,3.5924,-3.4689
10695.0,2.7817,-5.5848,0.0545,-2.2233,3.5924,-3.4689
10700.0,2.7817,-5.5848,0.0545,-2.2233,3.5924,-3.4689
10705.0,2.7817,-5.5848,0.0545,-2.2233,3.5924,-3.4689
10710.0,2.7817,-5.5848,0.0545,-2.2233,3.5924,-3.4689
10716.0,-0.4463,-6.295,-2.4904,-2.2233,3.5924,-3.4689
10720.0,-0.4463,-6.295,-2.4904,-1.8654,3.0249,-3.0907
10725.0,-0.4463,-6.295,-2.4904,-1.8654,3.0249,-3.0907
10729.0,-0.4463,-6.295,-2.4904,-1.8654,3.0249,-3.0907
10735.0,-0.4463,-6.295,-2.4904,-1.8654,3.0249,-3.0907
10740.0,-0.4463,-6.295,-2.4904,-1.8654,3.0249,-3.0907
10745.0,-2.1991,-7.9062,-2.9121,-1.8654,3.0249,-3.0907
10750.0,-2.1991,-7.9062,-2.9121,-1.3492,0.5723,-2.2868
10755.0,-2.1991,-7.9062,-2.9121,-1.3492,0.5723,-2.2868
10760.0,-2.1991,-7.9062,-2.9121,-1.3492,0.5723,-2.2868
10765.0,-2.1991,-7.9062,-2.9121,-1.3492,0.5723,-2.2868
10770.0,-3.8801,-8.321,-0.4431,-1.3492,0.5723,-2.2868
10775.0,-3.8801,-8.321,-0.4431,-1.3492,0.5723,-2.2868
10780.0,-3.8801,-8.321,-0.4431,-0.224,-1.9115,-1.1445
10793.0,-3.8801,-8.321,-0.4431,-0.224,-1.9115,-1.1445
10794.0,-3.8801,-8.321,-0.4431,-0.224,-1.9115,-1.1445
10795.0,-2.8744,-6.5858,3.1207,-0.224,-1.9115,-1.1445
10800.0,-2.8744,-6.5858,3.1207,-0.224,-1.9115,-1.1445
10804.0,-2.8744,-6.5858,3.1207,-0.224,-1.9115,-1.1445
10810.0,-2.8744,-6.5858,3.1207,0.4431,-0.2328,-0.5795
10814.0,-2.8744,-6.5858,3.1207,0.4431,-0.2328,-0.5795
10820.0,-2.8744,-6.5858,3.1207,0.4431,-0.2328,-0.5795
10824.0,0.6792,-2.9678,2.9785,0.4431,-0.2328,-0.5795
10830.0,0.6792,-2.9678,2.9785,0.4431,-0.2328,-0.5795
10834.0,0.6792,-2.9678,2.9785,0.4431,-0.2328,-0.5795
10840.0,0.6792,-2.9678,2.9785,0.0686,0.6578,-0.175
10844.0,0.6792,-2.9678,2.9785,0.0686,0.6578,-0.175
10849.0,0.6792,-2.9678,2.9785,0.0686,0.6578,-0.175
10855.0,1.8143,-1.4234,1.0118,0.0686,0.6578,-0.175
10860.0,1.8143,-1.4234,1.0118,0.0686,0.6578,-0.175
10865.0,1.8143,-1.4234,1.0118,0.0686,0.6578,-0.175
10869.0,1.8143,-1.4234,1.0118,0.0686,0.6578,-0.175
10875.0,1.8143,-1.4234,1.0118,0.3515,0.4299,0.9337
10880.0,1.6706,-3.6399,1.6942,0.3515,0.4299,0.9337
10885.0,1.6706,-3.6399,1.6942,0.3515,0.4299,0.9337
10890.0,1.6706,-3.6399,1.6942,0.3515,0.4299,0.9337
10895.0,1.6706,-3.6399,1.6942,0.3515,0.4299,0.9337
10899.0,1.6706,-3.6399,1.6942,0.3515,0.4299,0.9337
10905.0,2.4895,-10.4136,0.0024,2.3564,1.3829,3.9734
10910.0,2.4895,-10.4136,0.0024,2.3564,1.3829,3.9734
10915.0,2.4895,-10.4136,0.0024,2.3564,1.3829,3.9734
10920.0,2.4895,-10.4136,0.0024,2.3564,1.3829,3.9734
10925.0,2.4895,-10.4136,0.0024,2.3564,1.3829,3.9734
10930.0,2.4895,-10.4136,0.0024,2.3564,1.3829,3.9734
10935.0,3.8018,-15.6046,-6.4949,2.3564,1.3829,3.9734
10940.0,3.8018,-15.6046,-6.4949,3.8505,0.8032,5.5708
10945.0,3.8018,-15.6046,-6.4949,3.8505,0.8032,5.5708
10950.0,3.8018,-15.6046,-6.4949,3.8505,0.8032,5.5708
10954.0,3.8018,-15.6046,-6.4949,3.8505,0.8032,5.5708
10960.0,10.3391,-16.8583,-27.342,3.8505,0.8032,5.5708
10965.0,10.3391,-16.8583,-27.342,0.1658,-2.5132,-0.8971
10970.0,10.3391,-16.8583,-27.342,0.1658,-2.5132,-0.8971
10975.0,10.3391,-16.8583,-27.342,0.1658,-2.5132,-0.8971
10980.0,10.3391,-16.8583,-27.342,0.1658,-2.5132,-0.8971
10985.0,10.3391,-16.8583,-27.342,0.1658,-2.5132,-0.8971
10990.0,6.6274,-12.6015,-8.0303,0.1658,-2.5132,-0.8971
10995.0,6.6274,-12.6015,-8.0303,-1.1629,2.8722,-3.2984
10999.0,6.6274,-12.6015,-8.0303,-1.1629,2.8722,-3.2984
11006.0,6.6274,-12.6015,-8.0303,-1.1629,2.8722,-3.2984
11010.0,6.6274,-12.6015,-8.0303,-1.1629,2.8722,-3.2984
11015.0,6.6274,-12.6015,-8.0303,-1.1629,2.8722,-3.2984
11020.0,2.3794,-7.6154,-11.76,-1.1629,2.8722,-3.2984
11025.0,2.3794,-7.6154,-11.76,-1.1629,2.8722,-3.2984
11030.0,2.3794,-7.6154,-11.76,-0.3645,3.9748,-0.0639
11035.0,2.3794,-7.6154,-11.76,-0.3645,3.9748,-0.0639
11040.0,2.3794,-7.6154,-11.76,-0.3645,3.9748,-0.0639
11045.0,4.5776,-17.0776,2.2961,-0.3645,3.9748,-0.0639
11052.0,4.5776,-17.0776,2.2961,-0.3645,3.9748,-0.0639
11055.0,4.5776,-17.0776,2.2961,-0.3645,3.9748,-0.0639
11060.0,4.5776,-17.0776,2.2961,-0.6339,-6.7692,2.6362
